Time (s),X position (m),Y position (m),Z position (m),Rocket axis vector X,Rocket axis vector Y,Rocket axis vector Z,Velocity Vx  (m/s),Velocity Vy  (m/s),Velocity Vz  (m/s),angular velocity omegaX (rad/s),angular velocity omegaY (rad/s),angular velocity omegaZ (rad/s),Acceleration Ax (m/s2),Acceleration Ay (m/s2),Acceleration Az (m/s2),Angular Acceleration X (rad/s2),Angular Acceleration Y (rad/s2),Angular Acceleration Z (rad/s2),Angle of attack alpha (rad),alpha at CP (rad),Moment arm (m),Force X (N),Force Y (N),Force Z (N),Torque X (Nm),Torque Y (Nm),Torque Z (Nm),Thrust (N),Mass (kg),C.O.M distance from nose (m),Ixx (kg m2),Iyy (kg m2),Izz (kg m2),Windspeed X (m/s),Windspeed Y (m/s),atmospheric density (kg/m3),atmospheric temperature (K),
0,0,0,0,0.075479,0.043578,0.99619,0,0,0,0,0,0,0,0,0,0,0,0,0,0,0.46022,0,0,0,0,0,0,0,5.115,0.62491,1.0972,1.0972,0.0065925,3.0039,2.2437,0.15149,141.94,
0.00027183,0,0,0,0.075479,0.043578,0.99619,0,0,0,0,0,0,0,0,0,0,0,0,0,0,0.46022,0,0,0,0,0,0,9.7433,5.115,0.62492,1.0972,1.0972,0.0065925,3.0039,2.2437,0.15149,141.94,
0.00054367,0,0,0,0.075479,0.043578,0.99619,0,0,0,0,0,0,0,0,0,0,0,0,0,0,0.46021,0,0,0,0,0,0,19.4867,5.1149,0.62492,1.0972,1.0972,0.0065925,3.0039,2.2437,0.15149,141.94,
0.0008155,0,0,0,0.075479,0.043578,0.99619,0,0,0,0,0,0,0,0,0,0,0,0,0,0,0.46021,0,0,0,0,0,0,29.23,5.1149,0.62493,1.0972,1.0972,0.0065925,3.0039,2.2437,0.15149,141.94,
0.0010873,0,0,0,0.075479,0.043578,0.99619,0,0,0,0,0,0,0,0,0,0,0,0,0,0,0.4602,0,0,0,0,0,0,38.9734,5.1148,0.62493,1.0972,1.0972,0.0065924,3.0039,2.2437,0.15149,141.94,
0.0011505,0,0,0,0.075479,0.043578,0.99619,0,0,0,0,0,0,0,0,0,0,0,0,0,0,0.4602,0,0,0,0,0,0,41.2362,5.1148,0.62493,1.0972,1.0972,0.0065924,3.0039,2.2437,0.15149,141.94,
0.0012136,0,0,0,0.075479,0.043578,0.99619,0,0,0,0,0,0,0,0,0,0,0,0,0,0,0.4602,0,0,0,0,0,0,43.499,5.1148,0.62493,1.0972,1.0972,0.0065924,3.0039,2.2437,0.15149,141.94,
0.0012767,0,0,0,0.075479,0.043578,0.99619,0,0,0,0,0,0,0,0,0,0,0,0,0,0,0.4602,0,0,0,0,0,0,45.7618,5.1148,0.62493,1.0972,1.0972,0.0065924,3.0039,2.2437,0.15149,141.94,
0.0013399,0,0,0,0.075479,0.043578,0.99619,0,0,0,0,0,0,0,0,0,0,0,0,0,0,0.4602,0,0,0,0,0,0,48.0246,5.1148,0.62493,1.0972,1.0972,0.0065924,3.0039,2.2437,0.15149,141.94,
0.0013892,3.889e-10,2.2453e-10,-9.9699e-11,0.075479,0.043578,0.99619,1.9504e-05,1.1261e-05,-3.4368e-06,0,0,0,0,0,0,-0.015153,0.020288,0.00026064,1.4841,1.4841,0.4602,0,0,0,-0.016626,0.02226,0.00028597,49.7917,5.1148,0.62493,1.0972,1.0972,0.0065924,3.0039,2.2437,0.15149,141.94,
0.0014385,2.2175e-09,1.2803e-09,-2.327e-10,0.075479,0.043578,0.99619,5.8506e-05,3.3778e-05,-1.4157e-06,0,0,0,0.75144,0.43223,0.23297,-0.015154,0.020288,0.00026064,1.4841,1.4841,0.4602,3.8434,2.2108,1.1916,-0.016626,0.02226,0.00028597,51.5587,5.1148,0.62494,1.0972,1.0972,0.0065924,3.0039,2.2437,0.15149,141.94,
0.0014878,6.0621e-09,3.5e-09,1.1328e-10,0.075479,0.043578,0.99619,9.887e-05,5.7083e-05,1.7525e-05,0,0,0,0.77751,0.44729,0.57716,-0.015154,0.020289,0.00026064,1.4841,1.4841,0.4602,3.9768,2.2878,2.952,-0.016627,0.022261,0.00028597,53.3258,5.1147,0.62494,1.0972,1.0972,0.0065924,3.0039,2.2437,0.15149,141.94,
0.0015371,1.1944e-08,6.896e-09,1.8014e-09,0.075479,0.043578,0.99619,0.0001373,7.9273e-05,5.5467e-05,0,0,0,0.80359,0.46234,0.92135,-0.015154,0.020289,0.00026065,1.4841,1.4841,0.4602,4.1102,2.3648,4.7125,-0.016627,0.022261,0.00028598,55.0929,5.1147,0.62494,1.0972,1.0972,0.0065924,3.0039,2.2437,0.15149,141.94,
0.0015864,1.9712e-08,1.1381e-08,5.8041e-09,0.075479,0.043578,0.99619,0.00017803,0.00010279,0.00010974,0,0,0,0.82967,0.4774,1.2655,-0.015155,0.02029,0.00026065,1.4841,1.4841,0.46019,4.2435,2.4418,6.4729,-0.016627,0.022262,0.00028598,56.8599,5.1147,0.62494,1.0972,1.0972,0.0065924,3.0039,2.2437,0.15149,141.94,
0.0016357,2.9519e-08,1.7043e-08,1.2901e-08,0.075479,0.043578,0.99619,0.00022004,0.00012704,0.00018099,0,0,0,0.85575,0.49246,1.6097,-0.015155,0.02029,0.00026065,1.4841,1.4841,0.46019,4.3769,2.5188,8.2333,-0.016628,0.022262,0.00028598,58.627,5.1147,0.62494,1.0972,1.0972,0.0065924,3.0039,2.2437,0.15149,141.94,
0.001685,4.1429e-08,2.3919e-08,2.3928e-08,0.075479,0.043578,0.99619,0.00026334,0.00015204,0.0002692,0,0,0,0.88183,0.50751,1.9539,-0.015155,0.020291,0.00026066,1.4841,1.4841,0.46019,4.5103,2.5958,9.9937,-0.016628,0.022263,0.00028599,60.3941,5.1147,0.62494,1.0972,1.0972,0.0065924,3.0039,2.2437,0.15149,141.94,
0.0017343,5.5505e-08,3.2046e-08,3.9723e-08,0.075479,0.043578,0.99619,0.00030792,0.00017778,0.00037438,0,0,0,0.90791,0.52257,2.2981,-0.015156,0.020291,0.00026066,1.484,1.484,0.46019,4.6437,2.6728,11.7541,-0.016628,0.022263,0.00028599,62.1611,5.1147,0.62494,1.0972,1.0972,0.0065924,3.0039,2.2437,0.15149,141.94,
0.0019808,1.606e-07,9.2721e-08,2.1948e-07,0.075479,0.043578,0.99619,0.00055011,0.00031761,0.0011548,0,0,0,1.0383,0.59785,4.0191,-0.015157,0.020294,0.00026068,1.4838,1.4838,0.46019,5.3105,3.0578,20.5563,-0.01663,0.022266,0.00028601,70.9965,5.1147,0.62494,1.0972,1.0972,0.0065924,3.0039,2.2437,0.15149,141.94,
0.0022273,3.2935e-07,1.9015e-07,6.4391e-07,0.075479,0.043578,0.99619,0.00082446,0.000476,0.0023595,0,0,0,1.1687,0.67313,5.7401,-0.015159,0.020297,0.0002607,1.4835,1.4835,0.46018,5.9774,3.4428,29.3584,-0.016632,0.022269,0.00028603,79.8318,5.1146,0.62495,1.0972,1.0972,0.0065924,3.0039,2.2437,0.15149,141.94,
0.0024738,5.697e-07,3.2891e-07,1.4176e-06,0.075479,0.043578,0.99619,0.0011309,0.00065295,0.0039884,0,0,0,1.2991,0.74842,7.4611,-0.015162,0.0203,0.00026073,1.4831,1.4831,0.46018,6.6443,3.8278,38.1605,-0.016634,0.022272,0.00028605,88.6671,5.1146,0.62495,1.0971,1.0971,0.0065924,3.0039,2.2437,0.15149,141.94,
0.0027203,8.8955e-07,5.1358e-07,2.6451e-06,0.075479,0.043578,0.99619,0.0014696,0.00084846,0.0060416,0,0,0,1.4295,0.8237,9.1822,-0.015164,0.020304,0.00026075,1.4825,1.4825,0.46018,7.3112,4.2129,46.9626,-0.016637,0.022276,0.00028608,97.5024,5.1145,0.62496,1.0971,1.0971,0.0065923,3.0039,2.2437,0.15149,141.94,
0.0039528,3.9588e-06,2.2856e-06,1.925e-05,0.075479,0.043578,0.99619,0.003645,0.0021044,0.022672,0,0,0,2.0815,1.2001,17.7879,-0.015178,0.020324,0.00026093,1.4781,1.4781,0.46016,10.6455,6.138,90.9732,-0.016651,0.022297,0.00028626,141.6791,5.1143,0.62498,1.0971,1.0971,0.0065923,3.0039,2.2437,0.15149,141.94,
0.0051853,1.0205e-05,5.8916e-06,6.2889e-05,0.075479,0.043578,0.99619,0.0066241,0.0038244,0.04991,0,0,0,2.7336,1.5766,26.3943,-0.015196,0.02035,0.00026119,1.4709,1.4709,0.46014,13.9799,8.063,134.9837,-0.016671,0.022325,0.00028653,185.8557,5.1141,0.625,1.097,1.097,0.0065922,3.0039,2.2437,0.15149,141.94,
0.0064178,2.0618e-05,1.1904e-05,0.00014664,0.075479,0.043578,0.99619,0.010407,0.0060086,0.087757,0,0,0,3.3857,1.9531,35.0014,-0.01522,0.020384,0.00026154,1.4608,1.4608,0.46012,17.3142,9.9881,178.9942,-0.016696,0.02236,0.0002869,230.0323,5.1139,0.62502,1.097,1.097,0.0065921,3.0039,2.2437,0.15149,141.94,
0.0076503,3.6189e-05,2.0894e-05,0.00028357,0.075479,0.043578,0.99619,0.014994,0.0086569,0.13621,0,0,0,4.0379,2.3297,43.6092,-0.015251,0.020426,0.00026201,1.448,1.448,0.4601,20.6485,11.9131,223.0048,-0.016729,0.022406,0.0002874,274.209,5.1137,0.62504,1.0969,1.0969,0.0065921,3.0039,2.2437,0.15149,141.94,
0.0083622,4.792e-05,2.7667e-05,0.00039201,0.075479,0.043578,0.99619,0.01801,0.010398,0.16904,0,0,0,4.4146,2.5471,48.5813,-0.015273,0.020456,0.00026234,1.4393,1.4393,0.46009,22.5744,13.025,248.4247,-0.016752,0.022438,0.00028776,299.7249,5.1136,0.62505,1.0969,1.0969,0.006592,3.0039,2.2437,0.15149,141.94,
0.009074,6.1894e-05,3.5734e-05,0.00052508,0.075479,0.043578,0.99619,0.021294,0.012294,0.2054,0,0,0,4.7913,2.7646,53.5536,-0.015297,0.02049,0.00026273,1.4298,1.4298,0.46007,24.5002,14.1369,273.8446,-0.016779,0.022474,0.00028818,325.2407,5.1135,0.62506,1.0969,1.0969,0.006592,3.0039,2.2437,0.15149,141.94,
0.0097859,7.8301e-05,4.5207e-05,0.00068529,0.075479,0.043578,0.99619,0.024846,0.014345,0.24531,0,0,0,5.168,2.9821,58.5262,-0.015325,0.020528,0.00026318,1.4193,1.4193,0.46006,26.426,15.2487,299.2646,-0.016809,0.022516,0.00028866,350.7566,5.1133,0.62507,1.0968,1.0968,0.006592,3.0039,2.2437,0.15149,141.94,
0.010498,9.7332e-05,5.6195e-05,0.00087517,0.075479,0.043578,0.99619,0.028667,0.016551,0.28875,0,0,0,5.5448,3.1997,63.499,-0.015358,0.020572,0.00026369,1.4079,1.4079,0.46005,28.3518,16.3606,324.6845,-0.016844,0.022564,0.00028922,376.2725,5.1132,0.62508,1.0968,1.0968,0.0065919,3.0039,2.2437,0.15149,141.94,
0.010737,0.00010434,6.024e-05,0.00094597,0.075479,0.043578,0.99619,0.030009,0.017325,0.30412,0,0,0,5.6712,3.2726,65.1674,-0.015369,0.020588,0.00026388,1.4039,1.4039,0.46005,28.9979,16.7336,333.2128,-0.016857,0.022581,0.00028943,384.833,5.1132,0.62509,1.0968,1.0968,0.0065919,3.0039,2.2437,0.15149,141.94,
0.010975,0.00011167,6.4472e-05,0.0010205,0.075479,0.043578,0.99619,0.031381,0.018118,0.31989,0,0,0,5.7976,3.3456,66.8358,-0.015382,0.020605,0.00026408,1.3998,1.3998,0.46004,29.644,17.1066,341.7411,-0.01687,0.022599,0.00028964,393.3935,5.1131,0.62509,1.0968,1.0968,0.0065919,3.0039,2.2437,0.15149,141.94,
0.011214,0.00011933,6.8896e-05,0.0010988,0.075479,0.043578,0.99619,0.032783,0.018927,0.33605,0,0,0,5.924,3.4186,68.5043,-0.015395,0.020622,0.00026429,1.3956,1.3956,0.46004,30.2901,17.4797,350.2694,-0.016884,0.022618,0.00028987,401.9541,5.1131,0.62509,1.0968,1.0968,0.0065919,3.0039,2.2437,0.15149,141.94,
0.011453,0.00012733,7.3514e-05,0.001181,0.075479,0.043578,0.99619,0.034215,0.019754,0.35262,0,0,0,6.0504,3.4916,70.1728,-0.015408,0.020641,0.00026451,1.3913,1.3913,0.46004,30.9362,17.8527,358.7978,-0.016899,0.022638,0.0002901,410.5146,5.1131,0.6251,1.0968,1.0968,0.0065919,3.0039,2.2437,0.15149,141.94,
0.011562,0.0001311,7.5689e-05,0.0012199,0.075479,0.043578,0.99619,0.034879,0.020138,0.36031,0,0,0,6.1081,3.5249,70.9344,-0.015414,0.020649,0.00026461,1.3893,1.3893,0.46003,31.2311,18.0229,362.6905,-0.016906,0.022647,0.00029022,414.422,5.113,0.6251,1.0968,1.0968,0.0065919,3.0039,2.2437,0.15149,141.94,
0.011671,0.00013494,7.7905e-05,0.0012596,0.075479,0.043578,0.99619,0.03555,0.020525,0.36809,0,0,0,6.1658,3.5582,71.696,-0.015421,0.020658,0.00026472,1.3873,1.3873,0.46003,31.526,18.1932,366.5832,-0.016913,0.022657,0.00029033,418.3294,5.113,0.6251,1.0968,1.0968,0.0065919,3.0039,2.2437,0.15149,141.94,
0.01178,0.00013885,8.0164e-05,0.0013001,0.075479,0.043578,0.99619,0.036226,0.020915,0.37595,0,0,0,6.2235,3.5915,72.4576,-0.015427,0.020667,0.00026482,1.3853,1.3853,0.46003,31.8209,18.3635,370.4759,-0.01692,0.022666,0.00029045,422.2368,5.113,0.6251,1.0968,1.0968,0.0065919,3.0039,2.2437,0.15149,141.94,
0.011889,0.00014283,8.2465e-05,0.0013416,0.075479,0.043578,0.99619,0.036909,0.021309,0.38389,0,0,0,6.2812,3.6248,73.2192,-0.015434,0.020676,0.00026493,1.3832,1.3832,0.46003,32.1158,18.5337,374.3687,-0.016927,0.022676,0.00029057,426.1442,5.113,0.6251,1.0967,1.0967,0.0065918,3.0039,2.2437,0.15149,141.94,
0.011998,0.0001469,8.481e-05,0.0013838,0.075479,0.043578,0.99619,0.037598,0.021707,0.39192,0,0,0,6.3389,3.6581,73.9808,-0.015441,0.020685,0.00026504,1.3812,1.3812,0.46003,32.4107,18.704,378.2614,-0.016935,0.022686,0.00029069,430.0517,5.113,0.62511,1.0967,1.0967,0.0065918,3.0039,2.2437,0.15149,141.94,
0.012107,0.00015103,8.7198e-05,0.001427,0.075479,0.043578,0.99619,0.038293,0.022109,0.40003,0,0,0,6.3966,3.6915,74.7424,-0.015448,0.020695,0.00026516,1.3791,1.3791,0.46002,32.7056,18.8742,382.1541,-0.016942,0.022697,0.00029081,433.9591,5.113,0.62511,1.0967,1.0967,0.0065918,3.0039,2.2437,0.15149,141.94,
0.012216,0.00015524,8.9631e-05,0.0014711,0.075479,0.043578,0.99619,0.038995,0.022514,0.40822,0,0,0,6.4543,3.7248,75.504,-0.015455,0.020704,0.00026527,1.3769,1.3769,0.46002,33.0005,19.0445,386.0468,-0.01695,0.022707,0.00029094,437.8665,5.1129,0.62511,1.0967,1.0967,0.0065918,3.0039,2.2437,0.15149,141.94,
0.012325,0.00015953,9.2107e-05,0.001516,0.075479,0.043578,0.99619,0.039703,0.022922,0.41649,0,0,0,6.512,3.7581,76.2656,-0.015462,0.020714,0.00026539,1.3748,1.3748,0.46002,33.2955,19.2148,389.9395,-0.016958,0.022718,0.00029106,441.7739,5.1129,0.62511,1.0967,1.0967,0.0065918,3.0039,2.2437,0.15149,141.94,
0.01287,0.00018215,0.00010516,0.0017544,0.075479,0.043578,0.99619,0.043264,0.024978,0.45814,0,0,0,6.5274,3.7669,76.4687,-0.015499,0.020765,0.00026601,1.3641,1.3641,0.46,33.3728,19.2594,390.9637,-0.016998,0.022772,0.00029173,442.8002,5.1127,0.62513,1.0967,1.0967,0.0065918,3.0039,2.2437,0.15149,141.94,
0.013415,0.0002067,0.00011934,0.0020155,0.075479,0.043578,0.99619,0.04683,0.027037,0.49987,0,0,0,6.5322,3.7697,76.533,-0.015539,0.020818,0.00026665,1.3534,1.3534,0.45999,33.3964,19.273,391.2782,-0.01704,0.02283,0.00029242,443.1142,5.1125,0.62515,1.0966,1.0966,0.0065917,3.0039,2.2437,0.15149,141.94,
0.01396,0.0002332,0.00013464,0.0022993,0.075479,0.043578,0.99619,0.050399,0.029098,0.54163,0,0,0,6.5371,3.7725,76.5973,-0.01558,0.020874,0.00026733,1.3428,1.3428,0.45997,33.4199,19.2866,391.5927,-0.017085,0.02289,0.00029315,443.4281,5.1124,0.62516,1.0966,1.0966,0.0065916,3.0039,2.2437,0.15149,141.94,
0.014506,0.00026164,0.00015106,0.0026059,0.075479,0.043578,0.99619,0.053971,0.03116,0.58342,0,0,0,6.5419,3.7753,76.6616,-0.015622,0.020932,0.00026804,1.3322,1.3322,0.45995,33.4435,19.3001,391.9072,-0.017131,0.022952,0.00029391,443.742,5.1122,0.62518,1.0965,1.0965,0.0065916,3.0039,2.2437,0.15149,141.94,
0.014982,0.00028812,0.00016635,0.0028929,0.075479,0.043578,0.99619,0.057098,0.032965,0.62001,0,0,0,6.5462,3.7778,76.7178,-0.015661,0.020984,0.00026868,1.323,1.323,0.45993,33.4641,19.312,392.1824,-0.017173,0.023009,0.00029461,444.0167,5.112,0.6252,1.0965,1.0965,0.0065915,3.0039,2.2437,0.15149,141.94,
0.015459,0.0003161,0.0001825,0.0031972,0.075479,0.043578,0.99619,0.060227,0.034772,0.65663,0,0,0,6.5504,3.7802,76.7741,-0.015702,0.021039,0.00026935,1.3138,1.3138,0.45992,33.4847,19.3239,392.4576,-0.017216,0.023068,0.00029533,444.2913,5.1118,0.62521,1.0965,1.0965,0.0065915,3.0039,2.2437,0.15149,141.94,
0.015936,0.00034556,0.00019951,0.0035191,0.075479,0.043578,0.99619,0.063358,0.03658,0.69328,0,0,0,6.5546,3.7827,76.8304,-0.015743,0.021095,0.00027004,1.3047,1.3047,0.4599,33.5053,19.3357,392.7327,-0.017261,0.023129,0.00029607,444.5659,5.1117,0.62523,1.0964,1.0964,0.0065914,3.0039,2.2437,0.15149,141.94,
0.016413,0.00037652,0.00021739,0.0038584,0.075479,0.043578,0.99619,0.066492,0.038389,0.72996,0,0,0,6.5589,3.7851,76.8867,-0.015786,0.021153,0.00027075,1.2956,1.2956,0.45989,33.5258,19.3476,393.0079,-0.017308,0.023192,0.00029685,444.8406,5.1115,0.62524,1.0964,1.0964,0.0065914,3.0039,2.2437,0.15149,141.94,
0.018797,0.00055376,0.00031971,0.0058178,0.075479,0.043578,0.99619,0.08219,0.047453,0.91376,0,0,0,6.5801,3.7973,77.1681,-0.016021,0.021471,0.00027465,1.2507,1.2507,0.45981,33.6287,19.4069,394.3836,-0.017562,0.023536,0.00030107,446.2138,5.1107,0.62532,1.0962,1.0962,0.0065911,3.0039,2.2437,0.15149,141.94,
0.021181,0.00076849,0.00044369,0.0082163,0.075479,0.043578,0.99619,0.097943,0.056547,1.0983,0,0,0,6.6012,3.8095,77.4496,-0.016289,0.021833,0.00027911,1.207,1.207,0.45973,33.7315,19.4661,395.7594,-0.017852,0.023928,0.0003059,447.587,5.1099,0.6254,1.096,1.096,0.0065908,3.0039,2.2437,0.15149,141.94,
0.023566,0.0010208,0.00058939,0.011055,0.075479,0.043578,0.99619,0.11375,0.065672,1.2835,0,0,0,6.6224,3.8217,77.7312,-0.016588,0.022236,0.00028411,1.1646,1.1646,0.45965,33.8342,19.5252,397.1352,-0.018177,0.024366,0.00031132,448.9602,5.1091,0.62548,1.0958,1.0958,0.0065906,3.0039,2.2437,0.15149,141.94,
0.02595,0.0013109,0.00075688,0.014337,0.075479,0.043578,0.99619,0.12961,0.074829,1.4694,0,0,0,6.6435,3.8338,78.0126,-0.016917,0.022681,0.00028961,1.1236,1.1236,0.45958,33.9366,19.5841,398.5086,-0.018534,0.024848,0.00031729,450.331,5.1083,0.62556,1.0956,1.0956,0.0065903,3.0039,2.2437,0.15149,141.94,
0.029918,0.0018777,0.0010841,0.020783,0.075479,0.043578,0.99619,0.15612,0.090134,1.7803,0,0,0,6.6785,3.854,78.4805,-0.017529,0.023506,0.00029986,1.0586,1.0586,0.45944,34.1065,19.6819,400.7909,-0.019198,0.025744,0.00032842,452.6088,5.1069,0.62569,1.0952,1.0952,0.0065899,3.0039,2.2437,0.15149,141.9401,
0.033886,0.00255,0.0014723,0.028467,0.075479,0.043578,0.99619,0.18278,0.10553,2.0932,0,0,0,6.7136,3.8742,78.9487,-0.018215,0.024431,0.00031136,0.99775,0.99775,0.45931,34.2762,19.7795,403.0732,-0.019943,0.026749,0.0003409,454.8865,5.1055,0.62582,1.0949,1.0949,0.0065894,3.0039,2.2437,0.15149,141.9401,
0.037853,0.0033284,0.0019216,0.037397,0.075479,0.043578,0.99619,0.20958,0.121,2.408,0,0,0,6.7486,3.8943,79.4168,-0.018969,0.025448,0.00032401,0.94108,0.94108,0.45918,34.4455,19.8769,405.3536,-0.020762,0.027854,0.00035464,457.1625,5.1041,0.62595,1.0946,1.0946,0.006589,3.0039,2.2437,0.15149,141.9401,
0.041821,0.0042134,0.0024326,0.047579,0.075479,0.043578,0.99619,0.23654,0.13656,2.7248,0,0,0,6.7834,3.9143,79.8841,-0.019786,0.02655,0.0003377,0.8885,0.8885,0.45905,34.6141,19.9738,407.6272,-0.02165,0.029051,0.00036952,459.4314,5.1027,0.62609,1.0942,1.0942,0.0065885,3.0039,2.2437,0.15149,141.9401,
0.048114,0.005837,0.00337,0.066315,0.075479,0.043578,0.99619,0.27959,0.16142,3.2311,0,0,0,6.8387,3.9461,80.6257,-0.021196,0.028452,0.00036134,0.8131,0.8131,0.45883,34.8811,20.1272,411.2328,-0.023181,0.031116,0.00039518,463.0297,5.1005,0.6263,1.0937,1.0937,0.0065878,3.0039,2.2437,0.15149,141.9402,
0.054406,0.0077327,0.0044645,0.088252,0.075479,0.043578,0.99619,0.32301,0.18649,3.7424,0,0,0,6.8938,3.9778,81.366,-0.022729,0.030521,0.00038702,0.74667,0.74667,0.45862,35.1467,20.2797,414.8261,-0.024845,0.033363,0.00042305,466.6155,5.0983,0.62652,1.0931,1.0931,0.0065871,3.0039,2.2437,0.15149,141.9403,
0.060698,0.0099028,0.0057174,0.11342,0.075479,0.043578,0.99619,0.36681,0.21178,4.2585,0,0,0,6.9489,4.0094,82.1064,-0.02437,0.032736,0.00041446,0.6882,0.6882,0.4584,35.4118,20.4319,418.4163,-0.026625,0.035765,0.00045281,470.1983,5.096,0.62673,1.0925,1.0925,0.0065864,3.0039,2.2437,0.15149,141.9403,
0.066991,0.01235,0.0071301,0.14185,0.075479,0.043578,0.99619,0.41098,0.23728,4.7795,0,0,0,7.0038,4.0409,82.8452,-0.026104,0.035077,0.00044342,0.63669,0.63669,0.45818,35.6754,20.5832,421.9924,-0.028505,0.038303,0.0004842,473.7667,5.0937,0.62695,1.092,1.092,0.0065856,3.0039,2.2437,0.15148,141.9404,
0.07603,0.016354,0.0094417,0.18847,0.075479,0.043578,0.99619,0.47508,0.27429,5.5365,0,0,0,7.0825,4.086,83.9059,-0.028735,0.038631,0.00048728,0.57299,0.57299,0.45786,36.0529,20.7998,427.1194,-0.031354,0.042152,0.00053169,478.8829,5.0905,0.62727,1.0911,1.0911,0.0065846,3.0039,2.2437,0.15148,141.9406,
0.085068,0.02094,0.01209,0.24197,0.075479,0.043578,0.99619,0.53995,0.31174,6.3037,0,0,0,7.1609,4.131,84.9646,-0.031509,0.042381,0.0005334,0.51933,0.51933,0.45754,36.4284,21.0151,432.2256,-0.034354,0.046209,0.00058157,483.9781,5.0871,0.62759,1.0903,1.0903,0.0065835,3.0039,2.2437,0.15148,141.9407,
0.094107,0.026117,0.015079,0.30245,0.075479,0.043578,0.99619,0.60559,0.34964,7.0809,0,0,0,7.239,4.1759,86.0205,-0.034406,0.0463,0.00058144,0.47376,0.47376,0.45722,36.8015,21.229,437.3073,-0.037484,0.050443,0.00063346,489.0488,5.0838,0.62792,1.0895,1.0895,0.0065824,3.0039,2.2437,0.15148,141.9409,
0.10315,0.03189,0.018412,0.37001,0.075479,0.043578,0.99619,0.67201,0.38798,7.8682,0,0,0,7.317,4.2205,87.0745,-0.037411,0.050369,0.00063115,0.43474,0.43474,0.45689,37.1729,21.4418,442.3697,-0.040726,0.054833,0.00068709,494.1002,5.0804,0.62825,1.0886,1.0886,0.0065813,3.0039,2.2437,0.15148,141.9411,
0.11363,0.039341,0.022713,0.45731,0.075479,0.043578,0.99619,0.74997,0.433,8.7938,0,0,0,7.407,4.2722,88.2937,-0.041017,0.055256,0.00069063,0.3961,0.3961,0.4565,37.6009,21.6871,448.2119,-0.044611,0.060097,0.00075114,499.9297,5.0764,0.62863,1.0876,1.0876,0.00658,3.0039,2.2437,0.15147,141.9414,
0.12411,0.047614,0.02749,0.55438,0.075479,0.043578,0.99619,0.82898,0.47861,9.733,0,0,0,7.4967,4.3236,89.5093,-0.044742,0.060308,0.00075187,0.36318,0.36318,0.45611,38.026,21.9306,454.0223,-0.048617,0.065531,0.00081698,505.7274,5.0723,0.62902,1.0866,1.0866,0.0065787,3.0039,2.2437,0.15147,141.9417,
0.13459,0.056721,0.032748,0.66137,0.075479,0.043578,0.99619,0.90902,0.52482,10.6858,0,0,0,7.586,4.3747,90.7202,-0.048577,0.065514,0.0008147,0.33486,0.33486,0.45571,38.4479,22.1722,459.7943,-0.052734,0.07112,0.00088442,511.4867,5.0683,0.62942,1.0856,1.0856,0.0065774,3.0039,2.2437,0.15147,141.942,
0.14507,0.066672,0.038493,0.77842,0.075479,0.043578,0.99619,0.99009,0.57163,11.6521,0,0,0,7.6748,4.4256,91.9263,-0.052514,0.070863,0.00087899,0.31028,0.31028,0.45531,38.8665,22.4118,465.5279,-0.056953,0.076853,0.0009533,517.2077,5.0641,0.62982,1.0845,1.0845,0.0065761,3.0039,2.2437,0.15146,141.9423,
0.15773,0.079837,0.046094,0.93346,0.075479,0.043578,0.99619,1.0894,0.62898,12.8377,0,0,0,7.7816,4.4868,93.3778,-0.0574,0.077509,0.0009585,0.28463,0.28463,0.45482,39.3681,22.6989,472.4073,-0.062179,0.083962,0.0010383,524.0721,5.0591,0.63031,1.0833,1.0833,0.0065745,3.0039,2.2437,0.15146,141.9428,
0.17039,0.094269,0.054426,1.1036,0.075479,0.043578,0.99619,1.1903,0.68719,14.043,0,0,0,7.8878,4.5475,94.8217,-0.062421,0.084345,0.0010399,0.26258,0.26258,0.45432,39.8647,22.9831,479.2275,-0.067538,0.091259,0.0011251,530.8776,5.054,0.63081,1.082,1.082,0.0065728,3.0039,2.2437,0.15145,141.9433,
0.18306,0.10999,0.063502,1.2892,0.075479,0.043578,0.99619,1.2926,0.74627,15.268,0,0,0,7.9932,4.6079,96.2574,-0.067573,0.091367,0.001123,0.24343,0.24343,0.45381,40.3561,23.2642,485.9855,-0.073023,0.098736,0.0012136,537.621,5.0488,0.63132,1.0807,1.0807,0.0065711,3.0039,2.2437,0.15145,141.9439,
0.19572,0.12701,0.07333,1.4904,0.075479,0.043578,0.99619,1.3964,0.80622,16.5126,0,0,0,8.0979,4.6677,97.6843,-0.07285,0.098568,0.0012079,0.22668,0.22668,0.4533,40.8421,23.5421,492.6779,-0.078629,0.10639,0.0013037,544.2992,5.0436,0.63184,1.0793,1.0793,0.0065695,3.0039,2.2437,0.15144,141.9445,
0.2102,0.14811,0.08551,1.74,0.075479,0.043578,0.99619,1.517,0.87583,17.96,0,0,0,8.2166,4.7357,99.3053,-0.079037,0.10702,0.0013069,0.20993,0.20993,0.4527,41.3912,23.856,500.2507,-0.085185,0.11534,0.0014086,551.8561,5.0375,0.63243,1.0778,1.0778,0.0065675,3.0039,2.2437,0.15143,141.9452,
0.22469,0.17096,0.098705,2.0108,0.075479,0.043578,0.99619,1.6395,0.94657,19.433,0,0,0,8.3342,4.8029,100.9118,-0.085382,0.1157,0.001408,0.19529,0.19529,0.45209,41.932,24.165,507.7216,-0.091889,0.12452,0.0015153,559.3115,5.0313,0.63304,1.0762,1.0762,0.0065655,3.0039,2.2437,0.15142,141.946,
0.23917,0.19561,0.11293,2.303,0.075479,0.043578,0.99619,1.764,1.0184,20.9313,0,0,0,8.4505,4.8694,102.5045,-0.091883,0.1246,0.0015112,0.1824,0.1824,0.45147,42.4648,24.4694,515.0956,-0.098738,0.1339,0.0016239,566.6707,5.0251,0.63366,1.0746,1.0746,0.0065635,3.0039,2.2437,0.15141,141.9469,
0.25365,0.22207,0.12821,2.6172,0.075479,0.043578,0.99619,1.8903,1.0914,22.4548,0,0,0,8.5657,4.9353,104.0828,-0.098537,0.13372,0.0016163,0.17098,0.17098,0.45085,42.9894,24.769,522.3687,-0.10573,0.14348,0.0017342,573.9297,5.0188,0.63429,1.073,1.073,0.0065615,3.0039,2.2437,0.1514,141.9478,
0.25646,0.22741,0.13129,2.6806,0.075479,0.043578,0.99619,1.915,1.1056,22.753,0,0,0,8.5879,4.948,104.3874,-0.099845,0.13552,0.0016369,0.16891,0.16891,0.45072,43.0903,24.8266,523.769,-0.1071,0.14537,0.0017558,575.3274,5.0175,0.63441,1.0727,1.0727,0.0065611,3.0039,2.2437,0.1514,141.948,
0.25927,0.23282,0.13442,2.7449,0.075479,0.043578,0.99619,1.9398,1.12,23.0521,0,0,0,8.6101,4.9606,104.6922,-0.10116,0.13732,0.0016575,0.16689,0.16689,0.4506,43.1912,24.8842,525.1693,-0.10848,0.14725,0.0017774,576.7251,5.0163,0.63453,1.0724,1.0724,0.0065607,3.0039,2.2437,0.1514,141.9482,
0.26207,0.2383,0.13758,2.81,0.075479,0.043578,0.99619,1.9647,1.1343,23.3522,0,0,0,8.6321,4.9732,104.9939,-0.10248,0.13913,0.0016783,0.16491,0.16491,0.45048,43.2907,24.941,526.5517,-0.10986,0.14915,0.0017991,578.1049,5.0151,0.63465,1.072,1.072,0.0065603,3.0039,2.2437,0.1514,141.9484,
0.26488,0.24385,0.14079,2.876,0.075479,0.043578,0.99619,1.9896,1.1487,23.6533,0,0,0,8.6541,4.9858,105.2957,-0.1038,0.14095,0.0016991,0.16298,0.16298,0.45035,43.3902,24.9978,527.9342,-0.11125,0.15106,0.0018209,579.4847,5.0138,0.63478,1.0717,1.0717,0.0065599,3.0039,2.2437,0.15139,141.9486,
0.26569,0.24546,0.14172,2.8951,0.075479,0.043578,0.99619,1.9968,1.1529,23.74,0,0,0,8.6604,4.9894,105.3825,-0.10418,0.14147,0.0017051,0.16243,0.16243,0.45032,43.4188,25.0141,528.3316,-0.11164,0.1516,0.0018272,579.8814,5.0135,0.63481,1.0716,1.0716,0.0065597,3.0039,2.2437,0.15139,141.9487,
0.2665,0.24707,0.14265,2.9143,0.075479,0.043578,0.99619,2.004,1.157,23.8268,0,0,0,8.6667,4.993,105.4693,-0.10457,0.142,0.0017111,0.16188,0.16188,0.45028,43.4474,25.0304,528.729,-0.11204,0.15215,0.0018335,580.2782,5.0131,0.63485,1.0715,1.0715,0.0065596,3.0039,2.2437,0.15139,141.9487,
0.2673,0.24869,0.14358,2.9336,0.075479,0.043578,0.99619,2.0112,1.1612,23.9137,0,0,0,8.6731,4.9966,105.5561,-0.10495,0.14252,0.0017171,0.16134,0.16134,0.45025,43.476,25.0467,529.1265,-0.11245,0.1527,0.0018397,580.6749,5.0128,0.63488,1.0714,1.0714,0.0065595,3.0039,2.2437,0.15139,141.9488,
0.26811,0.25032,0.14452,2.9529,0.075479,0.043578,0.99619,2.0184,1.1653,24.0007,0,0,0,8.6794,5.0002,105.6429,-0.10533,0.14305,0.0017231,0.1608,0.1608,0.45021,43.5045,25.063,529.5239,-0.11285,0.15326,0.001846,581.0716,5.0124,0.63492,1.0713,1.0713,0.0065594,3.0039,2.2437,0.15139,141.9488,
0.26841,0.25092,0.14487,2.9601,0.075479,0.043578,0.99619,2.021,1.1668,24.0327,0,0,0,8.6817,5.0015,105.6749,-0.10547,0.14324,0.0017253,0.1606,0.1606,0.4502,43.5151,25.0691,529.6705,-0.11299,0.15346,0.0018483,581.2179,5.0123,0.63493,1.0713,1.0713,0.0065594,3.0039,2.2437,0.15139,141.9489,
0.26871,0.25152,0.14522,2.9672,0.075479,0.043578,0.99619,2.0237,1.1684,24.0648,0,0,0,8.6841,5.0029,105.707,-0.10561,0.14344,0.0017275,0.16041,0.16041,0.45019,43.5256,25.0751,529.817,-0.11314,0.15366,0.0018507,581.3642,5.0121,0.63495,1.0713,1.0713,0.0065593,3.0039,2.2437,0.15139,141.9489,
0.269,0.25212,0.14556,2.9744,0.075479,0.043578,0.99619,2.0263,1.1699,24.0969,0,0,0,8.6864,5.0042,105.739,-0.10576,0.14363,0.0017297,0.16021,0.16021,0.45017,43.5362,25.0811,529.9636,-0.11329,0.15387,0.001853,581.5105,5.012,0.63496,1.0712,1.0712,0.0065593,3.0039,2.2437,0.15139,141.9489,
0.2693,0.25273,0.14591,2.9816,0.075479,0.043578,0.99619,2.029,1.1714,24.1291,0,0,0,8.6887,5.0055,105.771,-0.1059,0.14383,0.001732,0.16001,0.16001,0.45016,43.5467,25.0871,530.1101,-0.11344,0.15407,0.0018553,581.6567,5.0119,0.63497,1.0712,1.0712,0.0065592,3.0039,2.2437,0.15139,141.9489,
0.2696,0.25333,0.14626,2.9888,0.075479,0.043578,0.99619,2.0317,1.173,24.1612,-1.7035e-05,2.3137e-05,2.7859e-07,8.6914,5.0071,105.8071,-0.10603,0.14402,0.0017341,0.15982,0.15982,0.45015,43.5588,25.094,530.2771,-0.11358,0.15427,0.0018575,581.803,5.0117,0.63499,1.0712,1.0712,0.0065592,3.0039,2.2437,0.15139,141.9489,
0.2699,0.25394,0.14661,2.996,0.075479,0.043578,0.99619,2.0343,1.1745,24.1933,-5.0539e-05,6.8642e-05,8.2652e-07,8.6937,5.0084,105.8391,-0.10617,0.1442,0.0017362,0.15962,0.15962,0.45013,43.5694,25.1,530.4237,-0.11372,0.15446,0.0018597,581.9493,5.0116,0.635,1.0711,1.0711,0.0065591,3.0039,2.2437,0.15139,141.949,
0.27019,0.25454,0.14696,3.0032,0.075479,0.043578,0.99619,2.0369,1.176,24.2255,-8.4153e-05,0.0001143,1.3762e-06,8.696,5.0097,105.8712,-0.1063,0.14438,0.0017382,0.15942,0.15942,0.45012,43.5799,25.1061,530.5703,-0.11386,0.15464,0.0018618,582.0956,5.0115,0.63501,1.0711,1.0711,0.0065591,3.0039,2.2437,0.15139,141.949,
0.27049,0.25515,0.14731,3.0104,0.075479,0.043578,0.99619,2.0396,1.1775,24.2576,-0.00011491,0.00015607,1.8791e-06,8.6984,5.0111,105.9032,-0.10643,0.14456,0.0017403,0.15923,0.15922,0.45011,43.5905,25.1121,530.7169,-0.114,0.15484,0.001864,582.2419,5.0113,0.63503,1.0711,1.0711,0.0065591,3.0039,2.2437,0.15139,141.949,
0.27081,0.2558,0.14769,3.0182,0.075479,0.043578,0.99619,2.0424,1.1792,24.2923,-0.00014906,0.00020245,2.4374e-06,8.7009,5.0125,105.9377,-0.10657,0.14476,0.0017425,0.15902,0.15901,0.45009,43.6019,25.1186,530.8748,-0.11414,0.15504,0.0018663,582.3995,5.0112,0.63504,1.071,1.071,0.006559,3.0039,2.2437,0.15139,141.949,
0.27113,0.25646,0.14807,3.026,0.075479,0.043578,0.99619,2.0453,1.1808,24.3269,-0.00018325,0.0002489,2.9966e-06,8.7034,5.0139,105.9723,-0.10672,0.14495,0.0017448,0.15881,0.1588,0.45008,43.6133,25.1251,531.0327,-0.11429,0.15525,0.0018687,582.5571,5.0111,0.63505,1.071,1.071,0.006559,3.0039,2.2437,0.15139,141.949,
0.27145,0.25712,0.14845,3.0338,0.075479,0.043578,0.99619,2.0481,1.1825,24.3616,-0.0002175,0.00029541,3.5564e-06,8.7059,5.0154,106.0068,-0.10686,0.14515,0.001747,0.1586,0.15859,0.45006,43.6247,25.1317,531.1906,-0.11444,0.15545,0.001871,582.7147,5.0109,0.63507,1.071,1.071,0.0065589,3.0039,2.2437,0.15139,141.9491,
0.27177,0.25777,0.14882,3.0416,0.075479,0.043578,0.99619,2.051,1.1841,24.3963,-0.00025179,0.00034199,4.117e-06,8.7085,5.0168,106.0411,-0.107,0.14535,0.0017492,0.15839,0.15838,0.45005,43.6361,25.1381,531.3474,-0.11459,0.15566,0.0018733,582.8711,5.0108,0.63508,1.0709,1.0709,0.0065589,3.0039,2.2437,0.15139,141.9491,
0.27338,0.26107,0.15073,3.0808,0.07548,0.043579,0.99619,2.0652,1.1923,24.5699,-0.00042395,0.00057585,6.931e-06,8.721,5.024,106.2118,-0.10772,0.14633,0.0017604,0.15735,0.15734,0.44998,43.6925,25.1704,532.1265,-0.11534,0.15668,0.001885,583.6485,5.0101,0.63515,1.0707,1.0707,0.0065586,3.0039,2.2437,0.15139,141.9492,
0.27498,0.26439,0.15265,3.1204,0.075481,0.04358,0.99619,2.0795,1.2006,24.7439,-0.00059728,0.00081134,9.7633e-06,8.7335,5.0312,106.3826,-0.10844,0.14732,0.0017716,0.15632,0.15631,0.44991,43.7492,25.2029,532.9056,-0.11609,0.15771,0.0018966,584.4259,5.0093,0.63523,1.0706,1.0706,0.0065584,3.0039,2.2437,0.15139,141.9493,
0.27658,0.26774,0.15458,3.1602,0.075483,0.043581,0.99619,2.0938,1.2088,24.9181,-0.0007718,0.0010484,1.2614e-05,8.7461,5.0384,106.5534,-0.10915,0.14831,0.0017828,0.15531,0.15529,0.44984,43.806,25.2355,533.6846,-0.11684,0.15874,0.0019083,585.2033,5.0086,0.6353,1.0704,1.0704,0.0065582,3.0039,2.2437,0.15138,141.9494,
0.27819,0.27111,0.15652,3.2003,0.075485,0.043582,0.99619,2.1082,1.2171,25.0927,-0.0009475,0.0012872,1.5483e-05,8.7588,5.0457,106.7242,-0.10987,0.1493,0.001794,0.1543,0.15428,0.44976,43.8631,25.2682,534.4635,-0.11759,0.15977,0.0019199,585.9807,5.0079,0.63537,1.0702,1.0702,0.0065579,3.0039,2.2437,0.15138,141.9496,
0.2862,0.28829,0.16644,3.4049,0.0755,0.043593,0.99619,2.1802,1.2585,25.9699,-0.0018438,0.0025053,3.0107e-05,8.8226,5.0824,107.5761,-0.11348,0.15427,0.0018502,0.14945,0.1494,0.4494,44.1508,25.4339,538.3425,-0.12134,0.16495,0.0019784,589.8524,5.0043,0.63573,1.0693,1.0693,0.0065568,3.0039,2.2437,0.15138,141.9502,
0.29422,0.30606,0.1767,3.6166,0.075525,0.043612,0.99619,2.2527,1.3003,26.8548,-0.00277,0.0037646,4.5195e-05,8.8871,5.1197,108.4219,-0.11712,0.15927,0.0019066,0.14484,0.14477,0.44904,44.4413,25.6021,542.1815,-0.12512,0.17015,0.0020369,593.6849,5.0007,0.63609,1.0683,1.0683,0.0065556,3.0039,2.2437,0.15137,141.9508,
0.30223,0.3244,0.18729,3.8354,0.07556,0.043637,0.99619,2.3259,1.3425,27.7472,-0.0037262,0.0050652,6.0751e-05,8.9523,5.1577,109.261,-0.12077,0.16431,0.0019632,0.14047,0.14038,0.44868,44.7348,25.773,545.9781,-0.12891,0.17538,0.0020954,597.4759,4.997,0.63646,1.0674,1.0674,0.0065544,3.0039,2.2437,0.15136,141.9515,
0.31025,0.34334,0.19822,4.0614,0.075606,0.043671,0.99618,2.3997,1.385,28.647,-0.0047127,0.0064076,7.6774e-05,9.0186,5.1965,110.0963,-0.12445,0.16938,0.0020198,0.13632,0.1362,0.44831,45.0329,25.9476,549.7479,-0.13271,0.18063,0.002154,601.2408,4.9933,0.63682,1.0664,1.0664,0.0065532,3.0039,2.2437,0.15135,141.9521,
0.32295,0.37458,0.21625,4.4345,0.075701,0.043741,0.99617,2.5178,1.4531,30.089,-0.0063391,0.0086218,0.00010313,9.1255,5.2594,111.4065,-0.1303,0.17746,0.00211,0.13013,0.12998,0.44772,45.5129,26.2311,555.636,-0.13876,0.18898,0.0022467,607.1217,4.9875,0.63741,1.0649,1.0649,0.0065514,3.0039,2.2437,0.15134,141.9533,
0.33566,0.40733,0.23515,4.8261,0.075824,0.043832,0.99616,2.6375,1.5221,31.5496,-0.0080426,0.010943,0.00013068,9.2349,5.3244,112.7015,-0.13619,0.1856,0.0022,0.12438,0.12419,0.44712,46.0041,26.5239,561.4261,-0.14482,0.19735,0.0023391,612.9056,4.9815,0.63801,1.0634,1.0634,0.0065494,3.0039,2.2437,0.15133,141.9544,
0.34837,0.44162,0.25493,5.2364,0.075978,0.043945,0.99614,2.7588,1.592,33.0287,-0.0098236,0.013371,0.00015942,9.3473,5.3918,113.9809,-0.14209,0.19376,0.0022894,0.11902,0.1188,0.44652,46.5078,26.827,567.1171,-0.15086,0.20573,0.0024308,618.5898,4.9755,0.63862,1.0618,1.0618,0.0065475,3.0039,2.2437,0.15132,141.9557,
0.36107,0.47745,0.27561,5.6656,0.076163,0.044082,0.99612,2.8818,1.663,34.5262,-0.011683,0.015906,0.00018934,9.4628,5.4616,115.2451,-0.14798,0.20193,0.0023783,0.114,0.11375,0.44591,47.0254,27.1415,572.7112,-0.15689,0.21409,0.0025217,624.1718,4.9695,0.63923,1.0602,1.0602,0.0065456,3.0039,2.2437,0.1513,141.9569,
0.37952,0.53229,0.30726,6.3229,0.07649,0.044322,0.99608,3.0633,1.7678,36.733,-0.01452,0.019781,0.00023506,9.6366,5.5678,117.0506,-0.15651,0.21378,0.0024987,0.10724,0.10695,0.44501,47.8035,27.62,580.6455,-0.16557,0.22615,0.0026514,632.0906,4.9606,0.64013,1.0579,1.0579,0.0065427,3.0039,2.2437,0.15128,141.9589,
0.39797,0.59051,0.34086,7.0213,0.076891,0.044617,0.99604,3.2484,1.8748,38.9777,-0.017522,0.023882,0.00028311,9.8182,5.6802,118.8186,-0.16495,0.22552,0.0026212,0.10102,0.10069,0.44409,48.6163,28.1266,588.3494,-0.17411,0.23804,0.0027777,639.7815,4.9517,0.64104,1.0555,1.0555,0.0065398,3.0039,2.2437,0.15126,141.961,
0.41642,0.65218,0.37646,7.7614,0.077369,0.044968,0.99599,3.4375,1.9843,41.2599,-0.020685,0.028209,0.00033321,10.0083,5.7994,120.5457,-0.17323,0.23707,0.002754,0.095264,0.094897,0.44316,49.4669,28.6638,595.8063,-0.18243,0.24966,0.0028993,647.2352,4.9426,0.64197,1.0531,1.0531,0.0065369,3.0039,2.2437,0.15123,141.9632,
0.43487,0.71738,0.4141,8.544,0.077929,0.045379,0.99593,3.6305,2.0962,43.5787,-0.024008,0.032758,0.00038572,10.2079,5.9259,122.231,-0.18127,0.24832,0.0028785,0.089894,0.08949,0.44222,50.3594,29.2346,603.0129,-0.19046,0.26091,0.0030151,654.4479,4.9334,0.64291,1.0507,1.0507,0.0065339,3.0039,2.2437,0.15121,141.9655,
0.45549,0.79451,0.45864,9.4697,0.078655,0.045912,0.99584,3.8513,2.2245,46.2129,-0.027903,0.038098,0.00045034,10.4431,6.0768,124.0638,-0.1899,0.26041,0.0028788,0.08428,0.083838,0.44115,51.4113,29.9159,610.7666,-0.19899,0.2729,0.0031347,662.2159,4.923,0.64398,1.0479,1.0479,0.0065306,3.0039,2.2437,0.15118,141.9683,
0.47611,0.87625,0.50586,10.4501,0.079494,0.046528,0.99575,4.0776,2.3563,48.8912,-0.031984,0.043696,0.00051558,10.692,6.2383,125.8375,-0.198,0.27182,0.0029486,0.079007,0.078528,0.44007,52.5244,30.6459,618.1761,-0.20691,0.28409,0.0032433,669.6492,4.9125,0.64507,1.0451,1.0451,0.0065272,3.0039,2.2437,0.15114,141.9712,
0.49673,0.96271,0.55584,11.4862,0.08045,0.047229,0.99564,4.3099,2.492,51.6127,-0.036237,0.049538,0.0005776,10.9561,6.4116,127.5541,-0.2054,0.28234,0.0032276,0.074017,0.073504,0.43896,53.7053,31.4291,625.2542,-0.21408,0.29427,0.0033395,676.7647,4.9019,0.64617,1.0423,1.0423,0.0065237,3.0039,2.2437,0.15111,141.9743,
0.51735,1.054,0.60866,12.5789,0.081529,0.048019,0.99551,4.5484,2.6317,54.3762,-0.040649,0.055605,0.0006433,11.2362,6.5974,129.2099,-0.21196,0.29174,0.0034288,0.069261,0.068715,0.43784,54.9581,32.2688,631.9849,-0.22032,0.30322,0.0034185,683.5437,4.8911,0.64729,1.0394,1.0394,0.0065203,3.0039,2.2437,0.15107,141.9776,
0.53919,1.1562,0.66777,13.7984,0.082808,0.048955,0.99536,4.8081,2.7844,57.3472,-0.045471,0.062247,0.0007367,11.5513,6.8082,130.8912,-0.21787,0.30016,0.0027588,0.064431,0.063853,0.43664,56.3665,33.222,638.7058,-0.22572,0.31107,0.003475,690.3287,4.8797,0.64849,1.0363,1.0363,0.0065166,3.0039,2.2437,0.15103,141.9813,
0.56102,1.264,0.73028,15.0833,0.084234,0.049999,0.99519,5.0756,2.9423,60.3628,-0.050423,0.069077,0.00081926,11.8866,7.0347,132.4998,-0.22235,0.30673,0.0025529,0.059774,0.059166,0.43542,57.865,34.2455,645.02,-0.22964,0.31693,0.0035089,696.7223,4.8681,0.64971,1.0331,1.0331,0.0065128,3.0039,2.2437,0.15099,141.9851,
0.58285,1.3778,0.79629,16.4345,0.085809,0.05115,0.995,5.3515,3.1057,63.4214,-0.055476,0.07605,0.00087067,12.243,7.2773,134.032,-0.22508,0.31115,0.0035768,0.055253,0.054618,0.43419,59.4571,35.3416,650.9127,-0.23183,0.32045,0.003521,702.7164,4.8564,0.65095,1.0299,1.0299,0.0065091,3.0039,2.2437,0.15095,141.9891,
0.60468,1.4978,0.86593,17.853,0.087537,0.052412,0.99478,5.6363,3.2752,66.5217,-0.060588,0.083117,0.00093167,12.6214,7.5367,135.4861,-0.22592,0.31294,0.0041981,0.050839,0.050179,0.43293,61.1457,36.5124,656.378,-0.23202,0.32125,0.0034965,708.3011,4.8446,0.6522,1.0267,1.0267,0.0065053,3.0039,2.2437,0.1509,141.9934,
0.62295,1.603,0.9271,19.0922,0.0891,0.053554,0.99458,5.8817,3.4218,69.1468,-0.064876,0.08906,0.001023,12.9547,7.7666,136.6355,-0.22507,0.31206,0.0031037,0.04721,0.046531,0.43187,62.6316,37.549,660.5889,-0.23044,0.31954,0.0034362,712.6262,4.8347,0.65326,1.0239,1.0239,0.0065021,3.0039,2.2437,0.15086,141.9971,
0.64122,1.7127,0.99099,20.3796,0.090771,0.054773,0.99436,6.1339,3.5731,71.7989,-0.069146,0.094985,0.0010979,13.3042,8.0088,137.7321,-0.22244,0.30885,0.0025924,0.043627,0.04293,0.4308,64.1888,38.6402,664.5151,-0.22709,0.31543,0.0033503,716.6807,4.8247,0.65433,1.0212,1.0212,0.0064988,3.0039,2.2437,0.15082,142.0009,
0.65949,1.8271,1.0577,21.7157,0.092548,0.056069,0.99413,6.3934,3.7294,74.4772,-0.073367,0.10085,0.001138,13.669,8.2628,138.7635,-0.21778,0.30311,0.0033442,0.04008,0.039369,0.42972,65.8117,39.7826,668.0974,-0.2218,0.30867,0.0032404,720.4056,4.8146,0.65541,1.0184,1.0184,0.0064956,3.0039,2.2437,0.15077,142.0049,
0.67776,1.9464,1.1273,23.1009,0.094431,0.057441,0.99387,6.6602,3.8907,77.1805,-0.077498,0.1066,0.0011821,14.0498,8.5289,139.7371,-0.21104,0.29448,0.0038253,0.036563,0.035839,0.42863,67.5029,40.9776,671.3747,-0.2144,0.29902,0.003094,723.8476,4.8046,0.6565,1.0156,1.0156,0.0064924,3.0039,2.2437,0.15073,142.0091,
0.69603,2.0705,1.1999,24.5358,0.096416,0.058887,0.9936,6.9348,4.0574,79.9078,-0.081496,0.11218,0.0012736,14.4452,8.8063,140.6437,-0.20221,0.28262,0.002335,0.033069,0.032335,0.42753,69.2565,42.2212,674.3044,-0.20473,0.28625,0.0028977,726.9584,4.7944,0.6576,1.0127,1.0127,0.0064891,3.0039,2.2437,0.15068,142.0134,
0.7143,2.1998,1.2756,26.0206,0.098499,0.060403,0.9933,7.2175,4.2297,82.6579,-0.085324,0.11754,0.0013417,14.8557,9.0951,141.4903,-0.19085,0.26744,0.0015769,0.029596,0.028855,0.42642,71.0731,43.5132,676.9229,-0.19262,0.27014,0.0026668,729.7748,4.7842,0.65871,1.0099,1.0099,0.0064858,3.0039,2.2437,0.15063,142.0178,
0.73256,2.3343,1.3544,27.556,0.10068,0.061987,0.99299,7.5085,4.4078,85.4297,-0.088937,0.1226,0.0013589,15.2796,9.3943,142.2687,-0.17668,0.24875,0.0025733,0.026143,0.025397,0.4253,72.945,44.8484,679.1932,-0.17794,0.25048,0.0024058,732.2599,4.774,0.65983,1.007,1.007,0.0064825,3.0039,2.2437,0.15058,142.0224,
0.75083,2.4742,1.4366,29.1421,0.10294,0.063633,0.99265,7.808,4.5919,88.2221,-0.092281,0.1273,0.0013801,15.7165,9.7034,142.984,-0.15978,0.22623,0.0031754,0.022709,0.021961,0.42417,74.8695,46.2246,681.1426,-0.16054,0.22708,0.0020989,734.44,4.7638,0.66096,1.0041,1.0041,0.0064792,3.0039,2.2437,0.15053,142.0271,
0.75622,2.5165,1.4615,29.6196,0.10363,0.06413,0.99255,7.898,4.6474,89.0493,-0.093206,0.12861,0.0013977,15.8474,9.7962,143.1812,-0.15429,0.2188,0.0028719,0.021701,0.020953,0.42384,75.4454,46.637,681.6487,-0.15488,0.21945,0.0019969,735.0171,4.7607,0.66129,1.0032,1.0032,0.0064782,3.0039,2.2437,0.15051,142.0286,
0.76161,2.5593,1.4867,30.1015,0.10432,0.064632,0.99244,7.9888,4.7034,89.8781,-0.094103,0.12988,0.0014136,15.9794,9.8897,143.3729,-0.14854,0.21102,0.0026028,0.020695,0.019947,0.4235,76.0252,47.0525,682.1268,-0.14897,0.21147,0.0018912,735.5677,4.7577,0.66163,1.0023,1.0023,0.0064772,3.0039,2.2437,0.1505,142.03,
0.76699,2.6025,1.5122,30.5879,0.10501,0.065138,0.99234,8.0804,4.7599,90.7086,-0.094969,0.13111,0.0014282,16.1124,9.9841,143.5605,-0.14254,0.20289,0.0023625,0.019691,0.018944,0.42317,76.6092,47.4712,682.5839,-0.14281,0.20315,0.0017817,736.0996,4.7547,0.66196,1.0015,1.0015,0.0064763,3.0039,2.2437,0.15048,142.0315,
0.77238,2.6463,1.538,31.0788,0.10572,0.065649,0.99223,8.1727,4.817,91.5406,-0.095802,0.13229,0.0014416,16.2459,10.0789,143.7382,-0.13626,0.19439,0.0021432,0.018689,0.017943,0.42283,77.1946,47.8913,682.9924,-0.1364,0.19448,0.0016684,736.5861,4.7516,0.6623,1.0006,1.0006,0.0064753,3.0039,2.2437,0.15046,142.0329,
0.77536,2.6707,1.5524,31.3519,0.10611,0.065933,0.99217,8.2241,4.8488,92.001,-0.096249,0.13293,0.0014485,16.3202,10.1317,143.8363,-0.13269,0.18954,0.0020285,0.018137,0.017391,0.42265,77.5206,48.1253,683.2174,-0.13275,0.18954,0.0016042,736.8549,4.75,0.66248,1.0001,1.0001,0.0064747,3.0039,2.2437,0.15045,142.0337,
0.77833,2.6953,1.5669,31.6264,0.1065,0.066218,0.99211,8.2757,4.8808,92.4619,-0.096684,0.13355,0.0014551,16.3949,10.1847,143.933,-0.12902,0.18458,0.0019181,0.017585,0.01684,0.42246,77.8477,48.3601,683.4351,-0.12902,0.18449,0.0015388,737.1169,4.7483,0.66267,0.99965,0.99965,0.0064742,3.0039,2.2437,0.15044,142.0346,
0.78131,2.72,1.5814,31.9023,0.1069,0.066504,0.99204,8.3275,4.9129,92.9232,-0.097109,0.13416,0.0014613,16.4693,10.2377,144.0236,-0.12528,0.17951,0.0018115,0.017035,0.01629,0.42228,78.1735,48.5942,683.6238,-0.12522,0.17934,0.0014722,737.3502,4.7466,0.66286,0.99917,0.99917,0.0064737,3.0039,2.2437,0.15044,142.0354,
0.78429,2.7449,1.5961,32.1796,0.10729,0.066792,0.99198,8.3796,4.9452,93.385,-0.097524,0.13475,0.0014673,16.5442,10.2909,144.1143,-0.12146,0.17432,0.001708,0.016485,0.015741,0.42209,78.501,48.8296,683.812,-0.12133,0.17408,0.0014044,737.5835,4.7449,0.66304,0.99869,0.99869,0.0064731,3.0039,2.2437,0.15043,142.0362,
0.78726,2.7699,1.6109,32.4582,0.10769,0.067081,0.99192,8.432,4.9777,93.8473,-0.097922,0.13532,0.0014729,16.6194,10.3444,144.2049,-0.11755,0.16903,0.0016064,0.015935,0.015192,0.4219,78.8302,49.0661,683.9996,-0.11737,0.16871,0.0013354,737.8168,4.7432,0.66323,0.99821,0.99821,0.0064726,3.0039,2.2437,0.15042,142.0371,
0.79024,2.795,1.6257,32.7382,0.10809,0.067371,0.99186,8.4845,5.0103,94.3099,-0.098319,0.13589,0.0014783,16.6951,10.3982,144.2951,-0.11356,0.16361,0.0015083,0.015387,0.014645,0.42172,79.1608,49.3037,684.1853,-0.11333,0.16323,0.0012652,738.0486,4.7416,0.66342,0.99773,0.99773,0.006472,3.0039,2.2437,0.15041,142.0379,
0.79321,2.8204,1.6407,33.0196,0.10849,0.067663,0.99179,8.5373,5.0431,94.773,-0.098725,0.13647,0.0014836,16.7587,10.4438,144.3521,-0.12173,0.17562,0.0015552,0.01484,0.014098,0.42153,79.4341,49.5026,684.2129,-0.12142,0.17512,0.0013363,738.2462,4.7399,0.6636,0.99725,0.99725,0.0064715,3.0039,2.2437,0.1504,142.0387,
0.79619,2.8459,1.6558,33.3024,0.1089,0.067955,0.99173,8.5903,5.076,95.2365,-0.099132,0.13705,0.0014889,16.8344,10.4978,144.4346,-0.11732,0.16964,0.0014542,0.014293,0.013552,0.42134,79.7649,49.7406,684.361,-0.11696,0.16907,0.0012585,738.4439,4.7382,0.66379,0.99676,0.99676,0.0064709,3.0039,2.2437,0.15039,142.0396,
0.79879,2.8683,1.669,33.5509,0.10925,0.068212,0.99167,8.6369,5.105,95.6424,-0.099474,0.13755,0.0014932,16.901,10.5452,144.5067,-0.11337,0.16429,0.001367,0.013815,0.013075,0.42118,80.0557,49.9499,684.4901,-0.11298,0.16368,0.0011892,738.6168,4.7367,0.66396,0.99634,0.99634,0.0064705,3.0039,2.2437,0.15038,142.0403,
0.8014,2.8908,1.6823,33.8005,0.10961,0.06847,0.99161,8.6837,5.1341,96.0486,-0.099807,0.13802,0.0014973,16.9679,10.5929,144.5788,-0.10936,0.15884,0.0012804,0.013338,0.012599,0.42101,80.3477,50.16,684.6187,-0.10893,0.15818,0.0011188,738.7898,4.7353,0.66412,0.99592,0.99592,0.00647,3.0039,2.2437,0.15037,142.0411,
0.804,2.9135,1.6958,34.0511,0.10996,0.068728,0.99156,8.7307,5.1634,96.4551,-0.10013,0.13849,0.0015011,17.0348,10.6405,144.647,-0.10526,0.15329,0.0011942,0.012861,0.012123,0.42085,80.639,50.3698,684.7285,-0.1048,0.15259,0.0010472,738.9441,4.7338,0.66428,0.99549,0.99549,0.0064695,3.0039,2.2437,0.15037,142.0418,
0.80661,2.9363,1.7092,34.3028,0.11032,0.068988,0.9915,8.7779,5.1928,96.862,-0.10044,0.13894,0.0015048,17.1016,10.6881,144.7124,-0.10109,0.14762,0.0011082,0.012385,0.011649,0.42068,80.93,50.5795,684.8253,-0.1006,0.14689,0.00097452,739.0858,4.7323,0.66445,0.99507,0.99507,0.0064691,3.0039,2.2437,0.15036,142.0426,
0.81385,3.0004,1.7472,35.0087,0.11132,0.069713,0.99134,8.9101,5.2752,97.9956,-0.10125,0.14012,0.0015139,17.2889,10.8217,144.8943,-0.089071,0.1313,0.0008625,0.011066,0.010332,0.42023,81.7458,51.1673,685.0924,-0.088537,0.13049,0.00076628,739.4801,4.7282,0.66491,0.99389,0.99389,0.0064677,3.0039,2.2437,0.15033,142.0447,
0.8211,3.0654,1.7857,35.7228,0.11233,0.070444,0.99117,9.0439,5.3587,99.1315,-0.10197,0.14118,0.0015212,17.4766,10.9556,145.0601,-0.076448,0.11414,0.0006176,0.0097529,0.0090232,0.41977,82.5616,51.7556,685.2812,-0.075897,0.11331,0.00054925,739.7986,4.7241,0.66537,0.9927,0.9927,0.0064664,3.0039,2.2437,0.15031,142.0468,
0.82834,3.1314,1.8248,36.4452,0.11335,0.07118,0.991,9.1791,5.4433,100.2698,-0.1026,0.14211,0.0015265,17.6656,11.0905,145.22,-0.063214,0.096139,0.00037999,0.0084472,0.007722,0.41931,83.3822,52.3474,685.4413,-0.062684,0.09532,0.0003235,740.0913,4.72,0.66583,0.99152,0.99152,0.0064651,3.0039,2.2437,0.15029,142.049,
0.83559,3.1984,1.8646,37.1758,0.11437,0.07192,0.99083,9.3158,5.5289,101.4102,-0.10313,0.14291,0.00153,17.8547,11.2256,145.3643,-0.049368,0.077286,0.00013723,0.0071497,0.0064297,0.41885,84.2013,52.9388,685.5261,-0.048896,0.076535,8.9008e-05,740.3111,4.7159,0.66629,0.99033,0.99033,0.0064638,3.0039,2.2437,0.15026,142.0512,
0.84912,3.3263,1.9405,38.5628,0.11629,0.07331,0.99051,9.5752,5.6917,103.5463,-0.10385,0.14403,0.0015395,18.2093,11.479,145.6086,-0.021897,0.039764,-0.00062876,0.0047514,0.0040431,0.41798,85.7337,54.0458,685.5614,-0.021607,0.039309,-0.00037414,740.6057,4.7082,0.66715,0.9881,0.9881,0.0064613,3.0039,2.2437,0.15022,142.0553,
0.86266,3.4577,2.0186,39.9788,0.11823,0.074708,0.99017,9.8399,5.8582,105.6892,-0.10418,0.14462,0.0015383,18.5639,11.7326,145.8142,0.0077162,-0.00070871,-0.0012675,0.0023952,0.0017046,0.41712,87.2609,55.15,685.411,0.0076529,-0.00066974,-0.00086581,740.7226,4.7006,0.66802,0.98587,0.98587,0.0064588,3.0039,2.2437,0.15017,142.0595,
0.87619,3.5927,2.0991,41.4238,0.12016,0.076106,0.98983,10.1099,6.0284,107.8384,-0.1041,0.14465,0.0015164,18.9171,11.9854,145.981,0.039481,-0.044062,-0.0014235,0.00027147,0.00067326,0.41625,88.7761,56.2466,685.0754,0.038836,-0.043339,-0.0013825,740.6618,4.6929,0.66889,0.98362,0.98362,0.0064563,3.0039,2.2437,0.15012,142.0639,
0.88973,3.7314,2.1818,42.8979,0.1221,0.0775,0.98949,10.385,6.2023,109.9933,-0.10358,0.14407,0.0014889,19.2669,12.2361,146.1049,0.073268,-0.090263,-0.0016747,0.0022229,0.0028823,0.41537,90.2702,57.3289,684.5367,0.071868,-0.088604,-0.0019264,740.4129,4.6852,0.66976,0.98137,0.98137,0.0064539,3.0039,2.2437,0.15007,142.0683,
0.90585,3.9015,2.2836,44.6926,0.12438,0.079146,0.98907,10.7197,6.4143,112.5677,-0.10234,0.14255,0.0014872,19.6774,12.5303,146.1994,0.11586,-0.14899,-0.0035582,0.0048387,0.005477,0.41433,92.0137,58.5933,683.6442,0.1135,-0.14574,-0.0026165,739.8732,4.6761,0.6708,0.97869,0.97869,0.0064509,3.0039,2.2437,0.15002,142.0736,
0.92198,4.0772,2.3888,46.5288,0.12664,0.080767,0.98866,11.0615,6.6315,115.1485,-0.10038,0.14004,0.001456,20.0789,12.8183,146.2415,0.16106,-0.21124,-0.004807,0.0073615,0.0079731,0.41329,93.7077,59.8227,682.5064,0.15737,-0.20606,-0.0033327,739.0936,4.667,0.67185,0.97599,0.97599,0.006448,3.0039,2.2437,0.14996,142.0791,
0.93811,4.2584,2.4975,48.4068,0.12884,0.082349,0.98824,11.4105,6.8537,117.7348,-0.097681,0.13649,0.0013599,20.4681,13.0976,146.2314,0.20876,-0.27653,-0.0041259,0.0097708,0.010352,0.41224,95.3378,61.0067,681.1267,0.20318,-0.26915,-0.004061,738.0745,4.6579,0.67289,0.97329,0.97329,0.006445,3.0039,2.2437,0.14989,142.0847,
0.95424,4.4452,2.6099,50.3264,0.13098,0.083882,0.98783,11.7663,7.0807,120.3255,-0.09419,0.13186,0.0012599,20.8407,13.365,146.1603,0.25831,-0.34455,-0.0038008,0.012049,0.012597,0.41119,96.8835,62.131,679.4656,0.25056,-0.33451,-0.0048093,736.7729,4.6488,0.67395,0.97058,0.97058,0.0064421,3.0039,2.2437,0.14983,142.0905,
0.9689,4.6201,2.7152,52.1077,0.13285,0.085221,0.98747,12.0954,7.2911,122.6836,-0.090298,0.12667,0.0012191,21.1629,13.5964,146.0507,0.30429,-0.40841,-0.0057941,0.013992,0.014507,0.41023,98.207,63.0945,677.7507,0.2946,-0.39537,-0.0055127,735.3813,4.6405,0.6749,0.96811,0.96811,0.0064394,3.0039,2.2437,0.14977,142.0958,
0.98356,4.7999,2.8237,53.9236,0.13464,0.086498,0.98711,12.4297,7.5052,125.0439,-0.085717,0.12053,0.0011501,21.4667,13.8146,145.898,0.35113,-0.47339,-0.0071542,0.015799,0.016278,0.40927,99.4397,63.993,675.8399,0.33916,-0.45706,-0.0062129,733.7874,4.6323,0.67586,0.96564,0.96564,0.0064368,3.0039,2.2437,0.14971,142.1012,
0.99822,4.9846,2.9353,55.7741,0.13633,0.087703,0.98677,12.7689,7.7228,127.4059,-0.080438,0.11341,0.0010288,21.7492,14.0175,145.7027,0.39846,-0.53876,-0.0069823,0.017456,0.017897,0.40831,100.5694,64.8175,673.7371,0.38376,-0.51893,-0.0068959,731.9923,4.6241,0.67682,0.96317,0.96317,0.0064341,3.0039,2.2437,0.14965,142.1068,
1.0129,5.1743,3.0501,57.6592,0.13791,0.088826,0.98645,13.1126,7.9435,129.7686,-0.074454,0.10531,0.0009004,22.0074,14.2029,145.4639,0.44553,-0.60394,-0.0069434,0.01895,0.01935,0.40735,101.5832,65.5587,671.4402,0.42789,-0.58028,-0.0075636,729.9903,4.6159,0.67778,0.96069,0.96069,0.0064315,3.0039,2.2437,0.14959,142.1124,
1.0258,5.3463,3.1544,59.3551,0.13921,0.089742,0.98619,13.4201,8.1413,131.858,-0.068575,0.09734,0.00081717,22.2132,14.3507,145.2153,0.48626,-0.66087,-0.0083291,0.020123,0.020486,0.4065,102.3721,66.1369,669.2427,0.46606,-0.63345,-0.0081418,728.0413,4.6086,0.67863,0.9585,0.9585,0.0064291,3.0039,2.2437,0.14954,142.1175,
1.0388,5.5223,3.2612,61.0781,0.14039,0.09058,0.98594,13.7305,8.3411,133.9471,-0.06216,0.088625,0.00071629,22.3957,14.4818,144.9326,0.52589,-0.7163,-0.0093346,0.021149,0.021473,0.40565,103.0518,66.6366,666.8948,0.50295,-0.68498,-0.0086896,725.9339,4.6014,0.67948,0.95631,0.95631,0.0064268,3.0039,2.2437,0.14948,142.1226,
1.0518,5.7023,3.3707,62.8282,0.14147,0.091332,0.98572,14.0436,8.5428,136.0351,-0.05523,0.079183,0.00058501,22.5533,14.595,144.6178,0.56399,-0.7695,-0.009474,0.022018,0.022302,0.4048,103.615,67.0525,664.4067,0.53809,-0.73421,-0.009196,723.6689,4.5942,0.68033,0.95412,0.95412,0.0064245,3.0039,2.2437,0.14942,142.1279,
1.0647,5.8864,3.4827,64.6053,0.14241,0.091992,0.98552,14.3591,8.7461,138.1219,-0.047803,0.069047,0.00044746,22.6843,14.689,144.2715,0.59989,-0.8198,-0.0096044,0.022722,0.022965,0.40395,104.0541,67.3791,661.7818,0.57098,-0.78044,-0.0096581,721.2473,4.5871,0.68118,0.95193,0.95193,0.0064222,3.0039,2.2437,0.14936,142.1332,
1.0765,6.0572,3.5868,66.2429,0.14316,0.092506,0.98537,14.6473,8.932,140.0157,-0.040651,0.059274,0.0003383,22.7788,14.7567,143.9307,0.62999,-0.86236,-0.010459,0.023212,0.023416,0.40318,104.3397,67.5943,659.285,0.59843,-0.81919,-0.010037,718.9164,4.5806,0.68195,0.94994,0.94994,0.0064201,3.0039,2.2437,0.14931,142.1381,
1.0883,6.2314,3.6931,67.9028,0.14379,0.092935,0.98524,14.9368,9.1188,141.9076,-0.033145,0.049001,0.00021905,22.8486,14.8068,143.5648,0.65735,-0.90119,-0.011071,0.023554,0.02372,0.40241,104.5119,67.7279,656.6805,0.62315,-0.85427,-0.010363,716.458,4.5741,0.68273,0.94795,0.94795,0.006418,3.0039,2.2437,0.14926,142.143,
1.1001,6.409,3.8016,69.585,0.14429,0.093274,0.98513,15.2274,9.3064,143.7973,-0.025321,0.038273,8.217e-05,22.8927,14.8384,143.1741,0.68153,-0.93561,-0.011136,0.023743,0.02387,0.40163,104.5659,67.7766,653.9706,0.64469,-0.88506,-0.010629,713.8731,4.5677,0.6835,0.94596,0.94596,0.0064159,3.0039,2.2437,0.1492,142.1481,
1.1118,6.59,3.9123,71.2894,0.14467,0.093521,0.98505,15.5188,9.4944,145.6845,-0.017217,0.027146,-5.7884e-05,22.9099,14.8507,142.7589,0.70198,-0.96497,-0.011146,0.023776,0.023863,0.40086,104.4977,67.7375,651.1577,0.66261,-0.91094,-0.010829,711.1626,4.5612,0.68427,0.94398,0.94398,0.0064139,3.0039,2.2437,0.14915,142.1532,
1.1228,6.7623,4.0177,72.9023,0.14491,0.093666,0.985,15.7914,9.6704,147.4456,-0.0094302,0.016442,-0.00017757,22.901,14.8442,142.3486,0.71719,-0.98727,-0.011577,0.023662,0.023712,0.40014,104.32,67.6192,648.4356,0.67567,-0.93013,-0.010954,708.5149,4.5553,0.68499,0.94212,0.94212,0.0064119,3.0039,2.2437,0.14909,142.158,
1.1338,6.9376,4.1251,74.5346,0.14503,0.093725,0.98498,16.0641,9.8464,149.2038,-0.0014826,0.0055019,-0.00030207,22.867,14.8198,141.916,0.72828,-1.0039,-0.011818,0.023407,0.023421,0.39943,104.0292,67.4197,645.6203,0.6848,-0.94396,-0.011009,705.7525,4.5493,0.68571,0.94027,0.94027,0.00641,3.0039,2.2437,0.14904,142.1629,
1.1449,7.1159,4.2344,76.1862,0.14503,0.093697,0.98498,16.3365,10.0222,150.9589,0.0065769,-0.00561,-0.00043638,22.8078,14.7772,141.4632,0.73487,-1.0144,-0.011651,0.02301,0.022988,0.39871,103.6245,67.1386,642.7213,0.68961,-0.95192,-0.010987,702.8846,4.5434,0.68642,0.93843,0.93843,0.0064081,3.0039,2.2437,0.14899,142.1678,
1.1559,7.2972,4.3457,77.8572,0.14491,0.09358,0.98501,16.6085,10.1977,152.7107,0.014698,-0.016822,-0.00057035,22.7229,14.7164,140.9902,0.73649,-1.018,-0.011404,0.02247,0.022413,0.39799,103.1049,66.7752,639.74,0.68976,-0.95349,-0.010885,699.9121,4.5375,0.68714,0.93658,0.93658,0.0064062,3.0039,2.2437,0.14893,142.1728,
1.1592,7.3521,4.3794,78.3618,0.14485,0.093528,0.98502,16.6899,10.2502,153.2352,0.017136,-0.020191,-0.00060828,22.6928,14.6947,140.8467,0.73594,-1.0177,-0.011386,0.022281,0.022213,0.39778,102.928,66.6511,638.8399,0.68884,-0.95265,-0.010839,699.0104,4.5357,0.68735,0.93603,0.93603,0.0064056,3.0039,2.2437,0.14892,142.1743,
1.1625,7.4073,4.4133,78.8682,0.14478,0.093468,0.98504,16.7712,10.3026,153.7593,0.019573,-0.02356,-0.00064616,22.66,14.6712,140.6987,0.7349,-1.0168,-0.011357,0.022079,0.022001,0.39756,102.739,66.5184,637.9208,0.68746,-0.95117,-0.010784,698.0875,4.5339,0.68757,0.93548,0.93548,0.0064051,3.0039,2.2437,0.1489,142.1758,
1.1658,7.4627,4.4474,79.3763,0.1447,0.093401,0.98506,16.8524,10.355,154.283,0.022007,-0.026927,-0.00068395,22.6246,14.6459,140.5479,0.73335,-1.0151,-0.011316,0.021864,0.021776,0.39735,102.539,66.3779,636.9896,0.68561,-0.94905,-0.010722,697.1504,4.5322,0.68778,0.93492,0.93492,0.0064045,3.0039,2.2437,0.14888,142.1773,
1.1691,7.5185,4.4816,79.8861,0.1446,0.093325,0.98508,16.9336,10.4073,154.8065,0.024437,-0.030289,-0.00072162,22.5872,14.6191,140.3973,0.73129,-1.0127,-0.011264,0.021637,0.021539,0.39714,102.3299,66.2308,636.0603,0.68328,-0.94628,-0.010652,696.2134,4.5304,0.688,0.93437,0.93437,0.0064039,3.0039,2.2437,0.14887,142.1789,
1.1724,7.5745,4.5161,80.3977,0.1445,0.093241,0.9851,17.0146,10.4595,155.3296,0.026861,-0.033644,-0.00075911,22.5479,14.5908,140.2471,0.72871,-1.0096,-0.011202,0.021398,0.021289,0.39692,102.1118,66.0772,635.1329,0.68047,-0.94284,-0.010573,695.2764,4.5287,0.68821,0.93382,0.93382,0.0064034,3.0039,2.2437,0.14885,142.1804,
1.1757,7.6307,4.5507,80.911,0.14438,0.09315,0.98513,17.0955,10.5117,155.8523,0.029276,-0.036989,-0.0007964,22.5054,14.5605,140.0904,0.7256,-1.0058,-0.011129,0.021145,0.021027,0.39671,101.8804,65.9142,634.1778,0.67716,-0.93872,-0.010486,694.3094,4.5269,0.68843,0.93327,0.93327,0.0064028,3.0039,2.2437,0.14883,142.1819,
1.1789,7.6873,4.5854,81.426,0.14426,0.09305,0.98516,17.1763,10.5637,156.3746,0.031682,-0.040323,-0.00083347,22.4609,14.5286,139.9328,0.72194,-1.0013,-0.011045,0.020881,0.020753,0.39649,101.6393,65.7443,633.2198,0.67335,-0.93391,-0.010391,693.3375,4.5252,0.68864,0.93272,0.93272,0.0064022,3.0039,2.2437,0.14882,142.1835,
1.1822,7.7441,4.6203,81.9428,0.14412,0.092943,0.98519,17.257,10.6157,156.8965,0.034076,-0.043642,-0.00087026,22.4143,14.4952,139.7755,0.71773,-0.99595,-0.010951,0.020604,0.020466,0.39628,101.3892,65.568,632.2635,0.66903,-0.9284,-0.010287,692.3656,4.5234,0.68885,0.93217,0.93217,0.0064017,3.0039,2.2437,0.1488,142.185,
1.1843,7.7792,4.642,82.2622,0.14403,0.092873,0.98521,17.3072,10.648,157.2219,0.035546,-0.045681,-0.00089279,22.3846,14.4739,139.6787,0.71489,-0.99233,-0.010888,0.020427,0.020283,0.39615,101.2307,65.4561,631.6746,0.66614,-0.92469,-0.010219,691.7665,4.5223,0.68898,0.93183,0.93183,0.0064013,3.0039,2.2437,0.14879,142.186,
1.1863,7.8145,4.6637,82.5823,0.14394,0.0928,0.98523,17.3553,10.679,157.5308,0.037008,-0.047709,-0.00091513,21.0823,13.6322,130.8781,0.71162,-0.98813,-0.010818,0.020246,0.020096,0.39604,95.3227,61.6372,591.7594,0.6629,-0.9205,-0.010146,651.251,4.5215,0.68909,0.93155,0.93155,0.006401,3.0039,2.2437,0.14878,142.1869,
1.1884,7.8498,4.6854,82.903,0.14384,0.092724,0.98525,17.3987,10.707,157.8076,0.038461,-0.049726,-0.00093729,18.8091,12.1646,115.4214,0.70783,-0.9832,-0.010739,0.020063,0.019907,0.39595,85.0303,54.9927,521.7872,0.6592,-0.91568,-0.010065,580.2278,4.5207,0.68918,0.93132,0.93132,0.0064008,3.0039,2.2437,0.14877,142.1879,
1.1904,7.8852,4.7072,83.2242,0.14374,0.092645,0.98527,17.4375,10.732,158.052,0.039906,-0.051733,-0.00095928,16.5374,10.6984,99.9595,0.70356,-0.97761,-0.010652,0.019879,0.019717,0.39586,74.7484,48.3565,451.814,0.65506,-0.91024,-0.0099765,509.2047,4.52,0.68927,0.93108,0.93108,0.0064006,3.0039,2.2437,0.14876,142.1888,
1.1916,7.9069,4.7206,83.421,0.14368,0.092595,0.98528,17.4589,10.7458,158.1864,0.040786,-0.052955,-0.00097265,15.1477,9.8017,90.4924,0.70071,-0.97387,-0.010595,0.019766,0.019601,0.3958,68.4603,44.2988,408.9823,0.65232,-0.90662,-0.0099193,465.7305,4.5195,0.68933,0.93094,0.93094,0.0064004,3.0039,2.2437,0.14875,142.1894,
1.1929,7.9287,4.734,83.618,0.14361,0.092545,0.9853,17.4787,10.7585,158.309,0.041663,-0.054174,-0.00098596,13.7588,8.9055,81.0235,0.6977,-0.9699,-0.010535,0.019653,0.019484,0.39575,62.1767,40.2447,366.1505,0.64941,-0.90278,-0.0098596,422.2564,4.5191,0.68939,0.9308,0.9308,0.0064003,3.0039,2.2437,0.14875,142.19,
1.1941,7.9505,4.7474,83.8152,0.14354,0.092493,0.98531,17.4967,10.7701,158.4199,0.042536,-0.055387,-0.00099919,12.3706,8.01,71.5527,0.69451,-0.96568,-0.010472,0.01954,0.019367,0.39569,55.8979,36.1943,323.3188,0.64634,-0.89872,-0.0097974,378.7822,4.5186,0.68944,0.93066,0.93066,0.0064001,3.0039,2.2437,0.14874,142.1906,
1.1954,7.9723,4.7608,84.0125,0.14348,0.09244,0.98533,17.513,10.7806,158.519,0.043405,-0.056595,-0.0010123,10.9832,7.1152,62.0799,0.69115,-0.96123,-0.010407,0.019426,0.01925,0.39564,49.624,32.1478,280.487,0.64312,-0.89444,-0.0097327,335.308,4.5182,0.6895,0.93051,0.93051,0.0064,3.0039,2.2437,0.14873,142.1912,
1.1966,7.9941,4.7742,84.2099,0.14341,0.092386,0.98534,17.5275,10.7899,158.6057,0.04427,-0.057797,-0.0010254,9.5968,6.2211,52.6053,0.68762,-0.95653,-0.010338,0.019312,0.019133,0.39558,43.3553,28.1052,237.6553,0.63973,-0.88993,-0.0096655,291.8339,4.5177,0.68955,0.93037,0.93037,0.0063998,3.0039,2.2437,0.14873,142.1918,
1.1979,8.0159,4.7876,84.4074,0.14333,0.092331,0.98536,17.5402,10.7981,158.6795,0.04513,-0.058993,-0.0010384,8.4434,5.4773,44.7256,0.68388,-0.95155,-0.010267,0.019197,0.019014,0.39553,38.1417,24.743,202.0403,0.63618,-0.88519,-0.0095956,255.6846,4.5173,0.6896,0.93025,0.93025,0.0063997,3.0039,2.2437,0.14872,142.1924,
1.1991,8.0377,4.8011,84.605,0.14326,0.092275,0.98537,17.551,10.8052,158.7392,0.045981,-0.060177,-0.0010512,7.8972,5.1248,41.0159,0.67988,-0.94622,-0.010191,0.01908,0.018894,0.39551,35.6732,23.1494,185.2756,0.63242,-0.88018,-0.0095225,238.667,4.5172,0.68962,0.9302,0.9302,0.0063996,3.0039,2.2437,0.14871,142.193,
1.2003,8.0596,4.8146,84.8026,0.14319,0.092218,0.98539,17.5612,10.8117,158.7939,0.046828,-0.061355,-0.0010639,7.3515,4.7725,37.306,0.67578,-0.94073,-0.010113,0.018962,0.018773,0.39549,33.2065,21.5574,168.511,0.62857,-0.87502,-0.0094479,221.6494,4.517,0.68964,0.93015,0.93015,0.0063996,3.0039,2.2437,0.14871,142.1936,
1.2024,8.0963,4.8371,85.1343,0.14306,0.09212,0.98542,17.5767,10.8218,158.8752,0.048236,-0.063316,-0.0010849,6.437,4.1824,31.0834,0.66866,-0.9312,-0.0099792,0.018762,0.018566,0.39546,29.0741,18.8907,140.3947,0.62188,-0.86607,-0.0093194,193.109,4.5167,0.68967,0.93006,0.93006,0.0063995,3.0039,2.2437,0.1487,142.1946,
1.2045,8.133,4.8597,85.466,0.14293,0.092019,0.98545,17.5903,10.8305,158.9435,0.049629,-0.065256,-0.0011057,5.5237,3.5932,24.86,0.66124,-0.92126,-0.0098405,0.018558,0.018357,0.39542,24.9476,16.2287,112.2784,0.61493,-0.85675,-0.0091867,164.5686,4.5164,0.68971,0.92997,0.92997,0.0063994,3.0039,2.2437,0.14869,142.1955,
1.2066,8.1697,4.8824,85.798,0.14279,0.091915,0.98548,17.6019,10.8381,158.9988,0.051006,-0.067175,-0.0011262,4.6117,3.0051,18.6357,0.65355,-0.91093,-0.0096972,0.018352,0.018144,0.39539,20.8273,13.5714,84.1618,0.60772,-0.84706,-0.0090501,136.0282,4.5162,0.68974,0.92988,0.92988,0.0063993,3.0039,2.2437,0.14867,142.1965,
1.2087,8.2065,4.905,86.13,0.14265,0.091808,0.98551,17.6117,10.8444,159.0411,0.052367,-0.069072,-0.0011464,3.7011,2.418,12.4107,0.64557,-0.90021,-0.0095495,0.018141,0.017929,0.39536,16.7137,10.9193,56.0451,0.60024,-0.83701,-0.0089095,107.4878,4.5159,0.68978,0.92979,0.92979,0.0063992,3.0039,2.2437,0.14866,142.1975,
1.2121,8.2658,4.9415,86.6658,0.14242,0.09163,0.98556,17.6237,10.8522,159.0819,0.054524,-0.07208,-0.0011783,2.8391,1.8618,6.5471,0.63206,-0.88202,-0.0093012,0.017794,0.017572,0.39532,12.8204,8.4074,29.5642,0.58763,-0.82003,-0.0086743,80.6028,4.5156,0.68981,0.92971,0.92971,0.0063991,3.0039,2.2437,0.14865,142.1991,
1.2154,8.3252,4.9781,87.2017,0.14217,0.091445,0.98561,17.6329,10.8583,159.1029,0.056633,-0.075023,-0.0012092,2.2958,1.511,2.877,0.61793,-0.86297,-0.0090432,0.017436,0.017205,0.3953,10.3668,6.8228,12.9911,0.57446,-0.80227,-0.0084308,63.7716,4.5155,0.68983,0.92966,0.92966,0.0063991,3.0039,2.2437,0.14863,142.2007,
1.2188,8.3846,5.0147,87.7377,0.14192,0.091253,0.98566,17.6402,10.8631,159.1115,0.058693,-0.077901,-0.0012393,1.7539,1.1612,-0.79334,0.6033,-0.84322,-0.0087771,0.017067,0.016828,0.39529,7.9195,5.243,-3.5822,0.56083,-0.78387,-0.0081804,46.9403,4.5153,0.68985,0.92961,0.92961,0.006399,3.0039,2.2437,0.14861,142.2023,
1.2222,8.4441,5.0513,88.2736,0.14166,0.091054,0.98572,17.6459,10.8668,159.1084,0.060703,-0.080712,-0.0012685,1.2135,0.81249,-4.464,0.58819,-0.82279,-0.0085035,0.016689,0.016441,0.39527,5.4791,3.6685,-20.1558,0.54676,-0.76483,-0.0079235,30.1091,4.5151,0.68987,0.92956,0.92956,0.006399,3.0039,2.2437,0.14859,142.2039,
1.2248,8.4906,5.0799,88.693,0.14144,0.090894,0.98576,17.6489,10.8689,159.0959,0.062242,-0.082865,-0.0012907,1.0014,0.67527,-5.8747,0.57922,-0.81058,-0.0083546,0.016385,0.01613,0.39526,4.5216,3.0489,-26.5251,0.53841,-0.75347,-0.0077798,23.6347,4.5151,0.68987,0.92955,0.92955,0.006399,3.0039,2.2437,0.14858,142.2052,
1.2274,8.5371,5.1086,89.1123,0.14123,0.09073,0.98581,17.6514,10.8705,159.0797,0.063757,-0.084986,-0.0013126,0.79225,0.53995,-7.2682,0.57019,-0.79828,-0.0082041,0.016074,0.015814,0.39526,3.5771,2.4379,-32.8167,0.53001,-0.74203,-0.0076355,17.239,4.5151,0.68987,0.92954,0.92954,0.006399,3.0039,2.2437,0.14857,142.2064,
1.2301,8.5836,5.1372,89.5316,0.141,0.090562,0.98586,17.6533,10.8718,159.0597,0.065249,-0.087075,-0.001334,0.5835,0.40497,-8.6618,0.56106,-0.78585,-0.0080517,0.015758,0.015491,0.39526,2.6345,1.8284,-39.1084,0.52153,-0.73047,-0.0074899,10.8433,4.5151,0.68988,0.92953,0.92953,0.006399,3.0039,2.2437,0.14855,142.2077,
1.2327,8.6302,5.1659,89.9508,0.14077,0.09039,0.98591,17.6547,10.8728,159.0362,0.066716,-0.089131,-0.001355,0.37522,0.27034,-10.0554,0.55185,-0.77329,-0.0078976,0.015435,0.015162,0.39525,1.6941,1.2206,-45.4002,0.51296,-0.71879,-0.0073432,4.4477,4.515,0.68988,0.92952,0.92952,0.006399,3.0039,2.2437,0.14854,142.209,
1.2353,8.6767,5.1946,90.3699,0.14054,0.090214,0.98596,17.6556,10.8734,159.009,0.068158,-0.091151,-0.0013756,0.22806,0.175,-11.0236,0.54146,-0.75915,-0.007719,0.015106,0.014827,0.39525,1.0297,0.79013,-49.7716,0.50329,-0.70565,-0.0071749,0,4.515,0.68988,0.92952,0.92952,0.0063989,3.0039,2.2437,0.14853,142.2102,
1.238,8.7232,5.2232,90.789,0.1403,0.090035,0.98601,17.6562,10.8739,158.9799,0.069568,-0.09313,-0.0013957,0.21942,0.16859,-11.0206,0.5284,-0.74144,-0.0074853,0.014771,0.014486,0.39525,0.99068,0.76121,-49.7579,0.49116,-0.68918,-0.0069577,0,4.515,0.68988,0.92952,0.92952,0.0063989,3.0039,2.2437,0.14851,142.2115,
1.2406,8.7698,5.2519,91.208,0.14006,0.089851,0.98606,17.6567,10.8743,158.9507,0.070944,-0.095061,-0.0014151,0.21064,0.16209,-11.0175,0.51515,-0.72344,-0.0072488,0.01443,0.014139,0.39525,0.95103,0.73183,-49.744,0.47884,-0.67245,-0.0067379,0,4.515,0.68988,0.92952,0.92952,0.0063989,3.0039,2.2437,0.1485,142.2127,
1.2433,8.8163,5.2805,91.6269,0.13981,0.089665,0.98611,17.6573,10.8747,158.9217,0.072284,-0.096943,-0.0014339,0.20172,0.15548,-11.0144,0.50169,-0.70517,-0.0070096,0.014083,0.013786,0.39525,0.91076,0.70201,-49.73,0.46633,-0.65547,-0.0065155,0,4.515,0.68988,0.92952,0.92952,0.0063989,3.0039,2.2437,0.14849,142.214,
1.2466,8.8746,5.3164,92.1515,0.13949,0.089426,0.98618,17.6579,10.8752,158.8854,0.073912,-0.099233,-0.0014565,0.19036,0.14708,-11.0105,0.48458,-0.6819,-0.0067062,0.01364,0.013335,0.39525,0.85947,0.66407,-49.7123,0.45042,-0.63384,-0.0062336,0,4.515,0.68988,0.92952,0.92952,0.0063989,3.0039,2.2437,0.14847,142.2155,
1.2499,8.9329,5.3523,92.676,0.13916,0.089182,0.98625,17.6585,10.8757,158.8491,0.075483,-0.10145,-0.0014782,0.1788,0.13853,-11.0065,0.46717,-0.65823,-0.006399,0.013188,0.012877,0.39525,0.80728,0.62548,-49.6944,0.43424,-0.61183,-0.005948,0,4.515,0.68988,0.92952,0.92952,0.0063989,3.0039,2.2437,0.14845,142.2171,
1.2532,8.9912,5.3883,93.2004,0.13883,0.088933,0.98631,17.6591,10.8761,158.8128,0.076996,-0.10358,-0.0014988,0.16705,0.12985,-11.0025,0.44949,-0.63417,-0.0060881,0.012727,0.01241,0.39525,0.75423,0.58628,-49.6763,0.41781,-0.58947,-0.0056589,0,4.515,0.68988,0.92952,0.92952,0.0063989,3.0039,2.2437,0.14843,142.2187,
1.2565,9.0495,5.4242,93.7246,0.13849,0.088679,0.98639,17.6596,10.8765,158.7765,0.078451,-0.10563,-0.0015184,0.15512,0.12104,-10.9985,0.43156,-0.60974,-0.0057737,0.012258,0.011935,0.39525,0.70035,0.5465,-49.658,0.40114,-0.56676,-0.0053667,0,4.515,0.68988,0.92952,0.92952,0.0063989,3.0039,2.2437,0.14842,142.2202,
1.2674,9.2432,5.5434,95.4651,0.13731,0.087804,0.98663,17.6611,10.8777,158.6561,0.08285,-0.11186,-0.0015759,0.11427,0.090924,-10.9848,0.37027,-0.52615,-0.0047073,0.010647,0.010305,0.39525,0.51592,0.41052,-49.5964,0.34417,-0.48907,-0.0043755,0,4.515,0.68988,0.92952,0.92952,0.0063989,3.0039,2.2437,0.14836,142.2254,
1.2784,9.4368,5.6627,97.2042,0.13608,0.086884,0.98688,17.6621,10.8785,158.5358,0.086564,-0.11716,-0.0016215,0.071823,0.059691,-10.9709,0.30674,-0.43936,-0.0036136,0.0089623,0.0086035,0.39525,0.32428,0.26951,-49.5336,0.28512,-0.40839,-0.0033589,0,4.515,0.68988,0.92952,0.92952,0.0063989,3.0039,2.2437,0.1483,142.2306,
1.2894,9.6305,5.782,98.9421,0.13478,0.085928,0.98714,17.6627,10.879,158.4156,0.089571,-0.12149,-0.0016551,0.028111,0.027586,-10.9568,0.24148,-0.35004,-0.002501,0.0072167,0.0068447,0.39525,0.12692,0.12455,-49.4701,0.22446,-0.32537,-0.0023248,0,4.515,0.68988,0.92952,0.92952,0.0063989,3.0039,2.2437,0.14825,142.2358,
1.3003,9.8242,5.9013,100.6786,0.13345,0.084943,0.98741,17.6627,10.8791,158.2957,0.091855,-0.12483,-0.0016763,-0.016529,-0.0051423,-10.9427,0.17498,-0.25888,-0.001378,0.005424,0.0050418,0.39525,-0.074628,-0.023218,-49.4065,0.16264,-0.24064,-0.0012809,0,4.515,0.68988,0.92952,0.92952,0.0063989,3.0039,2.2437,0.14819,142.241,
1.3113,10.0187,6.0211,102.4209,0.13208,0.083933,0.98768,17.6623,10.8789,158.1754,0.09341,-0.12717,-0.0016853,-0.061941,-0.038382,-10.9286,0.10748,-0.16621,-0.00024831,0.0035907,0.0032016,0.39525,-0.27966,-0.17329,-49.3428,0.099901,-0.1545,-0.00023081,0,4.515,0.68988,0.92952,0.92952,0.0063989,3.0039,2.2437,0.14814,142.2462,
1.3223,10.2132,6.1409,104.1619,0.13069,0.082909,0.98795,17.6614,10.8783,158.0552,0.094221,-0.12849,-0.0016818,-0.1076,-0.071744,-10.9147,0.039759,-0.073098,0.0008749,0.0017403,0.0013494,0.39525,-0.4858,-0.32392,-49.2798,0.036956,-0.067946,0.00081324,0,4.515,0.68988,0.92952,0.92952,0.0063989,3.0039,2.2437,0.14808,142.2514,
1.3334,10.4076,6.2607,105.9016,0.12929,0.08188,0.98822,17.6599,10.8773,157.9352,0.094287,-0.12878,-0.0016661,-0.1532,-0.10501,-10.9014,-0.027667,0.019751,0.0019833,0.0002184,0.00055353,0.39525,-0.6917,-0.47412,-49.2197,-0.025717,0.018359,0.0018435,0,4.515,0.68988,0.92952,0.92952,0.0063989,3.0039,2.2437,0.14802,142.2566,
1.3444,10.6021,6.3804,107.6399,0.1279,0.080855,0.98849,17.658,10.876,157.8153,0.093614,-0.12806,-0.0016382,-0.19887,-0.13822,-10.8923,-0.094303,0.11165,0.0030689,0.0019907,0.0023822,0.39525,-0.89789,-0.62407,-49.1788,-0.087656,0.10378,0.0028526,0,4.515,0.68988,0.92952,0.92952,0.0063989,3.0039,2.2437,0.14797,142.2618,
1.3571,10.8267,6.5188,109.6469,0.1263,0.079684,0.98879,17.6551,10.874,157.6769,0.091933,-0.12597,-0.0015914,-0.25064,-0.1758,-10.8823,-0.16968,0.21578,0.0042845,0.0041008,0.0044868,0.39525,-1.1316,-0.79375,-49.1338,-0.15772,0.20057,0.0039825,0,4.515,0.68988,0.92952,0.92952,0.0063989,3.0039,2.2437,0.1479,142.2678,
1.3698,11.0513,6.6571,111.6521,0.12474,0.078541,0.98908,17.6516,10.8715,157.5386,0.089307,-0.12258,-0.0015294,-0.30085,-0.21218,-10.8729,-0.24264,0.31675,0.0054476,0.0061643,0.0065402,0.39525,-1.3583,-0.95798,-49.0909,-0.22554,0.29442,0.0050637,0,4.515,0.68988,0.92952,0.92952,0.0063989,3.0039,2.2437,0.14784,142.2738,
1.3825,11.2759,6.7954,113.6556,0.12322,0.077436,0.98935,17.6475,10.8686,157.4004,0.085772,-0.11793,-0.0014531,-0.349,-0.247,-10.8639,-0.31247,0.41359,0.0065473,0.0081591,0.0085209,0.39525,-1.5757,-1.1152,-49.0504,-0.29045,0.38443,0.0060858,0,4.515,0.68988,0.92952,0.92952,0.0063989,3.0039,2.2437,0.14777,142.2798,
1.3953,11.5004,6.9337,115.6573,0.12178,0.076381,0.98961,17.6427,10.8652,157.2624,0.081372,-0.11208,-0.0013632,-0.39466,-0.27994,-10.8555,-0.37855,0.50541,0.0075735,0.010066,0.01041,0.39525,-1.7819,-1.2639,-49.0124,-0.35187,0.46978,0.0070397,0,4.515,0.68988,0.92952,0.92952,0.0063989,3.0039,2.2437,0.14771,142.2858,
1.4079,11.7227,7.0706,117.6382,0.12042,0.075395,0.98986,17.6375,10.8615,157.1258,0.076211,-0.10517,-0.0012617,-0.43701,-0.31041,-10.8477,-0.43971,0.59059,0.0085085,0.01185,0.012173,0.39525,-1.9731,-1.4015,-48.9772,-0.40871,0.54896,0.0079088,0,4.515,0.68988,0.92952,0.92952,0.0063989,3.0039,2.2437,0.14764,142.2917,
1.4205,11.9449,7.2074,119.6173,0.11916,0.074479,0.99008,17.6317,10.8574,156.9892,0.07031,-0.09722,-0.0011491,-0.47612,-0.33848,-10.8404,-0.49605,0.66928,0.0093543,0.013513,0.013812,0.39525,-2.1497,-1.5282,-48.9445,-0.46109,0.62211,0.0086949,0,4.515,0.68988,0.92952,0.92952,0.0063989,3.0039,2.2437,0.14758,142.2977,
1.4331,12.167,7.3442,121.5948,0.118,0.07364,0.99028,17.6255,10.853,156.8528,0.063732,-0.088328,-0.0010264,-0.51164,-0.3639,-10.8337,-0.54711,0.74082,0.010104,0.015041,0.015312,0.39525,-2.3101,-1.643,-48.9143,-0.50855,0.6886,0.0093916,0,4.515,0.68988,0.92952,0.92952,0.0063989,3.0039,2.2437,0.14752,142.3036,
1.4457,12.3891,7.4809,123.5705,0.11696,0.072888,0.99046,17.6189,10.8483,156.7164,0.056545,-0.078582,-0.00089489,-0.5433,-0.38645,-10.8276,-0.59247,0.80461,0.010751,0.016419,0.016661,0.39525,-2.453,-1.7448,-48.8865,-0.55071,0.7479,0.0099932,0,4.515,0.68988,0.92952,0.92952,0.0063989,3.0039,2.2437,0.14745,142.3095,
1.4583,12.6111,7.6176,125.5445,0.11604,0.072228,0.99061,17.6118,10.8433,156.5801,0.048825,-0.068084,-0.00075589,-0.57082,-0.40597,-10.822,-0.63176,0.86015,0.011291,0.017637,0.017846,0.39525,-2.5772,-1.8329,-48.8612,-0.58723,0.79953,0.010495,0,4.515,0.68988,0.92952,0.92952,0.0063989,3.0039,2.2437,0.14739,142.3154,
1.4709,12.833,7.7542,127.5167,0.11526,0.071668,0.99075,17.6045,10.838,156.4439,0.04065,-0.05694,-0.00061077,-0.59399,-0.42229,-10.8169,-0.6647,0.90702,0.01172,0.018682,0.018857,0.39525,-2.6819,-1.9066,-48.8381,-0.61785,0.84309,0.010894,0,4.515,0.68988,0.92952,0.92952,0.0063989,3.0039,2.2437,0.14733,142.3213,
1.4835,13.0548,7.8908,129.4873,0.11463,0.071213,0.99085,17.5969,10.8326,156.3077,0.032101,-0.045262,-0.000461,-0.61265,-0.4353,-10.8123,-0.69105,0.94488,0.012035,0.019547,0.019686,0.39525,-2.7661,-1.9654,-48.8173,-0.64234,0.87828,0.011186,0,4.515,0.68988,0.92952,0.92952,0.0063989,3.0039,2.2437,0.14726,142.3272,
1.4961,13.2764,8.0272,131.4561,0.11414,0.070867,0.99093,17.5891,10.8271,156.1716,0.023262,-0.033165,-0.00030799,-0.62672,-0.44496,-10.8087,-0.71065,0.97349,0.012234,0.020225,0.020326,0.39525,-2.8297,-2.009,-48.8011,-0.66056,0.90487,0.011371,0,4.515,0.68988,0.92952,0.92952,0.0063989,3.0039,2.2437,0.1472,142.3331,
1.5071,13.4696,8.1461,133.1704,0.11383,0.070656,0.99098,17.5821,10.8222,156.053,0.01539,-0.022374,-0.00017313,-0.63521,-0.45061,-10.8065,-0.72214,0.99076,0.012312,0.020659,0.020727,0.39525,-2.868,-2.0345,-48.7912,-0.67125,0.92093,0.011445,0,4.515,0.68988,0.92952,0.92952,0.0063989,3.0039,2.2437,0.14714,142.3382,
1.518,13.6626,8.2649,134.8834,0.11365,0.070531,0.99101,17.5751,10.8172,155.9345,0.0074209,-0.011432,-3.7893e-05,-0.64006,-0.45361,-10.8043,-0.72841,1.0009,0.012303,0.020945,0.020979,0.39525,-2.8899,-2.048,-48.7812,-0.67707,0.93031,0.011436,0,4.515,0.68988,0.92952,0.92952,0.0063989,3.0039,2.2437,0.14709,142.3433,
1.529,13.8555,8.3837,136.595,0.11359,0.070494,0.99102,17.5681,10.8122,155.8159,-0.00058825,-0.00041947,9.675e-05,-0.64127,-0.45396,-10.802,-0.72947,1.0038,0.012207,0.021081,0.021081,0.39525,-2.8953,-2.0497,-48.7712,-0.67805,0.93301,0.011346,0,4.515,0.68988,0.92952,0.92952,0.0063989,3.0039,2.2437,0.14703,142.3484,
1.54,14.0484,8.5024,138.3054,0.11364,0.070544,0.99101,17.5611,10.8072,155.6974,-0.0085806,0.010586,0.00022986,-0.63886,-0.4517,-10.7998,-0.72536,0.99956,0.012025,0.021069,0.021034,0.39525,-2.8845,-2.0394,-48.7611,-0.67423,0.92911,0.011177,0,4.515,0.68988,0.92952,0.92952,0.0063989,3.0039,2.2437,0.14698,142.3535,
1.5505,14.2328,8.6159,139.94,0.1138,0.070674,0.99099,17.5544,10.8025,155.5841,-0.016157,0.021034,0.00035489,-0.63324,-0.44713,-10.7977,-0.71668,0.98898,0.011773,0.020917,0.020851,0.39525,-2.8591,-2.0188,-48.7514,-0.66616,0.91927,0.010943,0,4.515,0.68988,0.92952,0.92952,0.0063989,3.0039,2.2437,0.14693,142.3584,
1.561,14.4171,8.7293,141.5734,0.11408,0.070881,0.99094,17.5478,10.7979,155.4708,-0.023618,0.031337,0.00047689,-0.62443,-0.44025,-10.7955,-0.70346,0.97213,0.011446,0.020632,0.020534,0.39525,-2.8193,-1.9877,-48.7417,-0.65387,0.90361,0.01064,0,4.515,0.68988,0.92952,0.92952,0.0063989,3.0039,2.2437,0.14688,142.3633,
1.5715,14.6014,8.8427,143.2056,0.11446,0.071166,0.99088,17.5413,10.7933,155.3575,-0.030917,0.041431,0.00059507,-0.61253,-0.43114,-10.7933,-0.68583,0.94917,0.011049,0.020216,0.020086,0.39525,-2.7656,-1.9466,-48.7319,-0.63749,0.88227,0.01027,0,4.515,0.68988,0.92952,0.92952,0.0063989,3.0039,2.2437,0.14682,142.3682,
1.582,14.7856,8.956,144.8366,0.11494,0.071525,0.99079,17.5349,10.7888,155.2443,-0.038009,0.051253,0.00070872,-0.59773,-0.41993,-10.7919,-0.66395,0.92033,0.010584,0.019671,0.019511,0.39525,-2.6988,-1.896,-48.7256,-0.61716,0.85546,0.0098378,0,4.515,0.68988,0.92952,0.92952,0.0063989,3.0039,2.2437,0.14677,142.3731,
1.5924,14.9686,9.0686,146.4565,0.11552,0.071955,0.9907,17.5288,10.7845,155.1317,-0.044808,0.060686,0.0008165,-0.58028,-0.40681,-10.7913,-0.63818,0.88607,0.010057,0.019008,0.018818,0.39525,-2.62,-1.8367,-48.7229,-0.5932,0.82361,0.0093485,0,4.515,0.68988,0.92952,0.92952,0.0063989,3.0039,2.2437,0.14672,142.3779,
1.6029,15.1515,9.1811,148.0752,0.11619,0.072453,0.99058,17.5228,10.7803,155.0192,-0.051319,0.069733,0.00091848,-0.56018,-0.39177,-10.791,-0.60861,0.84651,0.0094713,0.018227,0.018009,0.39525,-2.5292,-1.7689,-48.7215,-0.56571,0.78684,0.0088037,0,4.515,0.68988,0.92952,0.92952,0.0063989,3.0039,2.2437,0.14667,142.3827,
1.6133,15.3344,9.2936,149.6927,0.11696,0.073017,0.99045,17.5171,10.7763,154.9066,-0.057501,0.078341,0.001014,-0.53758,-0.37494,-10.791,-0.57545,0.80195,0.0088298,0.017334,0.017089,0.39525,-2.4272,-1.6929,-48.7214,-0.53489,0.74543,0.0082074,0,4.515,0.68988,0.92952,0.92952,0.0063989,3.0039,2.2437,0.14662,142.3876,
1.6238,15.5172,9.4061,151.3091,0.11781,0.073643,0.9903,17.5116,10.7725,154.7941,-0.06332,0.086459,0.0011026,-0.51265,-0.35644,-10.7913,-0.53895,0.75273,0.0081372,0.016336,0.016066,0.39525,-2.3146,-1.6093,-48.7227,-0.50096,0.69967,0.0075637,0,4.515,0.68988,0.92952,0.92952,0.0063989,3.0039,2.2437,0.14656,142.3924,
1.6344,15.703,9.5204,152.9506,0.11876,0.074339,0.99014,17.5063,10.7688,154.6797,-0.068827,0.094159,0.001185,-0.48511,-0.33607,-10.7919,-0.49871,0.69829,0.0073862,0.015221,0.014927,0.39525,-2.1903,-1.5173,-48.7254,-0.46356,0.64908,0.0068656,0,4.515,0.68988,0.92952,0.92952,0.0063989,3.0039,2.2437,0.14651,142.3973,
1.645,15.8886,9.6346,154.5908,0.11978,0.075091,0.98996,17.5013,10.7654,154.5653,-0.073891,0.10126,0.0012592,-0.45555,-0.31425,-10.7928,-0.45558,0.63981,0.0065927,0.014012,0.013695,0.39525,-2.0568,-1.4189,-48.7294,-0.42347,0.59471,0.006128,0,4.515,0.68988,0.92952,0.92952,0.0063989,3.0039,2.2437,0.14646,142.4022,
1.6556,16.0743,9.7488,156.2299,0.12088,0.075893,0.98976,17.4967,10.7622,154.4509,-0.078484,0.10772,0.0013248,-0.42419,-0.29115,-10.794,-0.40989,0.5777,0.0057624,0.012717,0.01238,0.39525,-1.9152,-1.3146,-48.7348,-0.381,0.53698,0.0053562,0,4.515,0.68988,0.92952,0.92952,0.0063989,3.0039,2.2437,0.14641,142.4071,
1.6662,16.2599,9.8629,157.8677,0.12204,0.07674,0.98955,17.4923,10.7592,154.3365,-0.082579,0.11351,0.0013813,-0.39124,-0.26693,-10.7954,-0.36194,0.51239,0.0049008,0.011345,0.01099,0.39525,-1.7664,-1.2052,-48.7414,-0.33643,0.47627,0.0045554,0,4.515,0.68988,0.92952,0.92952,0.0063989,3.0039,2.2437,0.14635,142.412,
1.6772,16.4527,9.9815,159.5687,0.1233,0.077664,0.98933,17.4882,10.7564,154.2175,-0.086286,0.11877,0.0014303,-0.35555,-0.24075,-10.7973,-0.31007,0.44161,0.0039785,0.0098479,0.0094763,0.39525,-1.6053,-1.087,-48.7497,-0.28822,0.41049,0.0036981,0,4.515,0.68988,0.92952,0.92952,0.0063989,3.0039,2.2437,0.1463,142.4171,
1.6882,16.6455,10.1001,161.2683,0.12462,0.078624,0.98908,17.4845,10.7539,154.0986,-0.08941,0.12323,0.001469,-0.31867,-0.21373,-10.7994,-0.25651,0.3684,0.0030355,0.0082887,0.007903,0.39525,-1.4388,-0.96501,-48.7593,-0.23843,0.34243,0.0028215,0,4.515,0.68988,0.92952,0.92952,0.0063989,3.0039,2.2437,0.14625,142.4222,
1.6993,16.8382,10.2186,162.9666,0.12599,0.079616,0.98883,17.4812,10.7517,153.9796,-0.091937,0.12688,0.0014972,-0.28085,-0.18607,-10.8018,-0.20165,0.29328,0.0020783,0.0066784,0.0062812,0.39525,-1.2681,-0.84012,-48.7702,-0.18743,0.27261,0.0019318,0,4.515,0.68988,0.92952,0.92952,0.0063989,3.0039,2.2437,0.14619,142.4273,
1.7103,17.031,10.3372,164.6635,0.12738,0.080631,0.98857,17.4783,10.7498,153.8606,-0.093853,0.1297,0.0015148,-0.24237,-0.15797,-10.8045,-0.14587,0.21679,0.0011137,0.0050287,0.0046227,0.39525,-1.0943,-0.71322,-48.7821,-0.13559,0.20151,0.0010352,0,4.515,0.68988,0.92952,0.92952,0.0063989,3.0039,2.2437,0.14614,142.4323,
1.7221,17.2377,10.4643,166.4829,0.12891,0.081739,0.98828,17.4757,10.7481,153.7329,-0.095222,0.13177,0.0015218,-0.20065,-0.12754,-10.8075,-0.085445,0.13381,7.8118e-05,0.0032284,0.0028161,0.39525,-0.90592,-0.57584,-48.7961,-0.079423,0.12438,7.2612e-05,0,4.515,0.68988,0.92952,0.92952,0.0063989,3.0039,2.2437,0.14608,142.4378,
1.7339,17.4444,10.5915,168.3007,0.13046,0.082859,0.98799,17.4736,10.7468,153.6051,-0.095874,0.13286,0.0015167,-0.1588,-0.097069,-10.8109,-0.024906,0.050542,-0.00095013,0.0014145,0.0010022,0.39525,-0.717,-0.43827,-48.811,-0.02315,0.04698,-0.00088316,0,4.515,0.68988,0.92952,0.92952,0.0063989,3.0039,2.2437,0.14602,142.4432,
1.7458,17.6511,10.7186,170.117,0.13201,0.083982,0.98768,17.4719,10.7458,153.4773,-0.095812,0.13297,0.0014994,-0.1173,-0.066875,-10.8153,0.035273,-0.03236,-0.001963,0.00045431,0.00085426,0.39525,-0.52959,-0.30194,-48.8309,0.032787,-0.030079,-0.0018247,0,4.515,0.68988,0.92952,0.92952,0.0063989,3.0039,2.2437,0.14596,142.4486,
1.7576,17.8578,10.8457,171.9318,0.13356,0.0851,0.98738,17.4708,10.7452,153.3494,-0.095043,0.1321,0.0014703,-0.076723,-0.03737,-10.8228,0.094626,-0.11425,-0.0029528,0.0022396,0.0026527,0.39525,-0.3464,-0.16872,-48.8648,0.087957,-0.1062,-0.0027447,0,4.515,0.68988,0.92952,0.92952,0.0063989,3.0039,2.2437,0.14591,142.4541,
1.7712,18.0954,10.9919,174.0169,0.13532,0.086368,0.98703,17.47,10.7449,153.2023,-0.0933,0.12992,0.0014226,-0.031131,-0.0042697,-10.8314,0.16127,-0.20636,-0.0040528,0.0042899,0.0046971,0.39525,-0.14056,-0.019278,-48.9038,0.14991,-0.19182,-0.0037671,0,4.515,0.68988,0.92952,0.92952,0.0063989,3.0039,2.2437,0.14584,142.4603,
1.7848,18.3331,11.138,176.0999,0.13704,0.087607,0.98668,17.4699,10.7451,153.055,-0.090666,0.1265,0.0013603,0.01289,0.027631,-10.8399,0.22556,-0.29538,-0.0051014,0.0062888,0.0066855,0.39525,0.0582,0.12475,-48.9421,0.20966,-0.27456,-0.0047419,0,4.515,0.68988,0.92952,0.92952,0.0063989,3.0039,2.2437,0.14577,142.4665,
1.7984,18.5707,11.2842,178.181,0.13871,0.088803,0.98634,17.4704,10.7457,152.9076,-0.087177,0.1219,0.0012841,0.054915,0.058022,-10.8481,0.28686,-0.38044,-0.0060886,0.0082144,0.0085969,0.39525,0.24794,0.26197,-48.9792,0.26664,-0.35362,-0.0056594,0,4.515,0.68988,0.92952,0.92952,0.0063989,3.0039,2.2437,0.14571,142.4728,
1.812,18.8084,11.4304,180.2601,0.1403,0.089947,0.98601,17.4714,10.7466,152.7601,-0.082877,0.11617,0.0011949,0.094549,0.086621,-10.8559,0.34459,-0.46071,-0.0070049,0.010047,0.010412,0.39525,0.42689,0.39109,-49.0145,0.3203,-0.42824,-0.0065111,0,4.515,0.68988,0.92952,0.92952,0.0063989,3.0039,2.2437,0.14564,142.479,
1.8253,19.0406,11.5732,182.2895,0.14178,0.091004,0.98571,17.4729,10.748,152.6159,-0.077944,0.10955,0.0010963,0.13062,0.11258,-10.863,0.39703,-0.53381,-0.0078236,0.011732,0.012075,0.39525,0.58974,0.5083,-49.0465,0.36904,-0.49619,-0.0072722,0,4.515,0.68988,0.92952,0.92952,0.0063989,3.0039,2.2437,0.14558,142.485,
1.8386,19.2729,11.7161,184.3171,0.14317,0.091991,0.98541,17.4749,10.7496,152.4716,-0.072343,0.10201,0.00098735,0.16375,0.13636,-10.8695,0.44508,-0.60099,-0.0085595,0.013294,0.013615,0.39525,0.73931,0.61565,-49.0756,0.41371,-0.55863,-0.0079562,0,4.515,0.68988,0.92952,0.92952,0.0063989,3.0039,2.2437,0.14551,142.4911,
1.8519,19.5052,11.859,186.3427,0.14445,0.0929,0.98514,17.4772,10.7516,152.3272,-0.066134,0.093607,0.00086916,0.19366,0.15775,-10.8752,0.48833,-0.66166,-0.0092063,0.014722,0.015015,0.39525,0.87437,0.71223,-49.1014,0.45391,-0.61503,-0.0085574,0,4.515,0.68988,0.92952,0.92952,0.0063989,3.0039,2.2437,0.14545,142.4972,
1.8652,19.7375,12.0019,188.3664,0.14561,0.093724,0.98489,17.48,10.7538,152.1827,-0.059384,0.084447,0.000743,0.22012,0.17659,-10.88,0.52644,-0.71534,-0.0097589,0.016,0.016265,0.39525,0.99384,0.7973,-49.1232,0.48933,-0.66492,-0.0090711,0,4.515,0.68988,0.92952,0.92952,0.0063989,3.0039,2.2437,0.14538,142.5032,
1.8785,19.9698,12.1449,190.3882,0.14665,0.094456,0.98467,17.4831,10.7563,152.0382,-0.052164,0.074623,0.00061017,0.24293,0.19274,-10.8839,0.5591,-0.7616,-0.010213,0.017119,0.017353,0.39525,1.0968,0.87022,-49.1407,0.51969,-0.70792,-0.0094932,0,4.515,0.68988,0.92952,0.92952,0.0063989,3.0039,2.2437,0.14532,142.5093,
1.8918,20.2022,12.2879,192.408,0.14756,0.09509,0.98447,17.4864,10.7589,151.8936,-0.044547,0.064236,0.00047197,0.26192,0.20608,-10.8867,0.58607,-0.80008,-0.010565,0.018069,0.01827,0.39525,1.1826,0.93045,-49.1536,0.54476,-0.74369,-0.0098208,0,4.515,0.68988,0.92952,0.92952,0.0063989,3.0039,2.2437,0.14526,142.5153,
1.9051,20.4347,12.4309,194.426,0.14833,0.095622,0.9843,17.49,10.7617,151.749,-0.03661,0.053391,0.00032976,0.27697,0.21652,-10.8885,0.60716,-0.83052,-0.010814,0.018842,0.019008,0.39525,1.2505,0.9776,-49.1614,0.56436,-0.77198,-0.010052,0,4.515,0.68988,0.92952,0.92952,0.0063989,3.0039,2.2437,0.14519,142.5213,
1.9184,20.6672,12.5739,196.442,0.14896,0.096048,0.98417,17.4938,10.7647,151.6044,-0.028433,0.042195,0.00018495,0.28799,0.22402,-10.8891,0.62225,-0.85274,-0.010957,0.019431,0.019562,0.39525,1.3003,1.0114,-49.1641,0.57839,-0.79264,-0.010185,0,4.515,0.68988,0.92952,0.92952,0.0063989,3.0039,2.2437,0.14513,142.5274,
1.93,20.8713,12.6996,198.2103,0.14938,0.096333,0.98408,17.4972,10.7673,151.4775,-0.02112,0.032164,5.6783e-05,0.29432,0.22814,-10.8886,0.6305,-0.86538,-0.010996,0.019794,0.019893,0.39525,1.3288,1.03,-49.162,0.58606,-0.80439,-0.010221,0,4.515,0.68988,0.92952,0.92952,0.0063989,3.0039,2.2437,0.14507,142.5326,
1.9417,21.0755,12.8252,199.9771,0.14969,0.096533,0.98401,17.5006,10.77,151.3505,-0.013737,0.022024,-7.1361e-05,0.29749,0.22996,-10.8872,0.63407,-0.87159,-0.010955,0.02001,0.020077,0.39525,1.3432,1.0383,-49.1558,0.58938,-0.81016,-0.010183,0,4.515,0.68988,0.92952,0.92952,0.0063989,3.0039,2.2437,0.14502,142.5379,
1.9534,21.2797,12.9509,201.7424,0.14989,0.096648,0.98397,17.5041,10.7727,151.2236,-0.0063402,0.011849,-0.00019856,0.29751,0.22948,-10.885,0.63298,-0.87138,-0.010833,0.020079,0.020114,0.39525,1.3432,1.0361,-49.1459,0.58837,-0.80996,-0.01007,0,4.515,0.68988,0.92952,0.92952,0.0063989,3.0039,2.2437,0.14496,142.5432,
1.965,21.484,13.0766,203.5063,0.14997,0.096678,0.98395,17.5076,10.7753,151.0967,0.0010171,0.0017129,-0.00032389,0.29448,0.22678,-10.8816,0.6273,-0.86483,-0.010634,0.020002,0.020004,0.39525,1.3296,1.0239,-49.1305,0.58309,-0.80388,-0.0098849,0,4.515,0.68988,0.92952,0.92952,0.0063989,3.0039,2.2437,0.14491,142.5485,
1.9762,21.6801,13.1973,205.1973,0.14993,0.096628,0.98396,17.5108,10.7778,150.975,0.0079902,-0.0079075,-0.00044156,0.2887,0.22209,-10.8777,0.61762,-0.85271,-0.010372,0.019791,0.019763,0.39525,1.3035,1.0028,-49.1126,0.57408,-0.7926,-0.0096413,0,4.515,0.68988,0.92952,0.92952,0.0063989,3.0039,2.2437,0.14485,142.5535,
1.9874,21.8761,13.318,206.8869,0.14979,0.096501,0.984,17.514,10.7803,150.8534,0.014832,-0.017361,-0.0005559,0.2802,0.21543,-10.8729,0.6039,-0.835,-0.010043,0.019449,0.019391,0.39525,1.2651,0.97267,-49.091,0.56133,-0.77614,-0.0093352,0,4.515,0.68988,0.92952,0.92952,0.0063989,3.0039,2.2437,0.1448,142.5586,
1.9986,22.0722,13.4387,208.5752,0.14955,0.0963,0.98405,17.5171,10.7827,150.7317,0.021498,-0.026585,-0.0006662,0.26905,0.20685,-10.8673,0.58628,-0.81188,-0.0096493,0.018979,0.018891,0.39525,1.2148,0.93395,-49.0659,0.54496,-0.75466,-0.0089692,0,4.515,0.68988,0.92952,0.92952,0.0063989,3.0039,2.2437,0.14475,142.5636,
2.0098,22.2684,13.5594,210.2622,0.14921,0.096026,0.98413,17.52,10.7849,150.6102,0.027946,-0.035521,-0.00077175,0.25537,0.19644,-10.861,0.56492,-0.78358,-0.0091944,0.018384,0.018267,0.39525,1.153,0.88694,-49.0375,0.5251,-0.72835,-0.0085463,0,4.515,0.68988,0.92952,0.92952,0.0063989,3.0039,2.2437,0.14469,142.5687,
2.021,22.4638,13.6797,211.9414,0.14877,0.095684,0.98423,17.5228,10.787,150.4892,0.034112,-0.044081,-0.00087151,0.23934,0.18433,-10.8541,0.54011,-0.75046,-0.0086839,0.017672,0.017528,0.39525,1.0806,0.83226,-49.0061,0.50204,-0.69757,-0.0080718,0,4.515,0.68988,0.92952,0.92952,0.0063989,3.0039,2.2437,0.14464,142.5737,
2.0321,22.6593,13.8,213.6192,0.14825,0.095275,0.98435,17.5254,10.789,150.3683,0.039982,-0.052245,-0.00096527,0.22104,0.17059,-10.8465,0.51196,-0.71271,-0.0081201,0.016847,0.016676,0.39525,0.99797,0.77019,-48.9718,0.47588,-0.66247,-0.0075478,0,4.515,0.68988,0.92952,0.92952,0.0063989,3.0039,2.2437,0.14459,142.5787,
2.0433,22.8548,13.9204,215.2957,0.14763,0.094804,0.98449,17.5277,10.7908,150.2475,0.045521,-0.059963,-0.0010525,0.20061,0.15531,-10.8383,0.48071,-0.67061,-0.0075072,0.015914,0.015719,0.39525,0.90573,0.70122,-48.9348,0.44682,-0.62334,-0.0069781,0,4.515,0.68988,0.92952,0.92952,0.0063989,3.0039,2.2437,0.14453,142.5837,
2.0544,23.0503,14.0408,216.9709,0.14693,0.094273,0.98464,17.5298,10.7925,150.1267,0.050695,-0.067189,-0.0011326,0.1782,0.13862,-10.8296,0.44658,-0.62449,-0.0068496,0.01488,0.014662,0.39525,0.80459,0.62586,-48.8955,0.4151,-0.58047,-0.0063669,0,4.515,0.68988,0.92952,0.92952,0.0063989,3.0039,2.2437,0.14448,142.5887,
2.0658,23.2496,14.1635,218.6769,0.14614,0.093676,0.98482,17.5317,10.794,150.0038,0.055561,-0.074004,-0.0012064,0.15351,0.12028,-10.8202,0.40909,-0.57369,-0.0061383,0.013731,0.01349,0.39525,0.6931,0.54304,-48.8534,0.38026,-0.53326,-0.0057057,0,4.515,0.68988,0.92952,0.92952,0.0063989,3.0039,2.2437,0.14443,142.5938,
2.0772,23.4489,14.2862,220.3816,0.14528,0.093027,0.98501,17.5333,10.7952,149.8809,0.059988,-0.080221,-0.001272,0.12713,0.10073,-10.8105,0.36917,-0.51946,-0.0053907,0.012492,0.012232,0.39525,0.57398,0.45479,-48.8093,0.34315,-0.48285,-0.0050107,0,4.515,0.68988,0.92952,0.92952,0.0063989,3.0039,2.2437,0.14437,142.5989,
2.0885,23.6482,14.4089,222.0849,0.14435,0.09233,0.98521,17.5346,10.7962,149.7582,0.063947,-0.085804,-0.0013289,0.099246,0.080121,-10.8004,0.32711,-0.4622,-0.0046121,0.011174,0.010895,0.39525,0.4481,0.36175,-48.7638,0.30405,-0.42962,-0.004287,0,4.515,0.68988,0.92952,0.92952,0.0063989,3.0039,2.2437,0.14432,142.604,
2.0999,23.8476,14.5317,223.7868,0.14336,0.091592,0.98542,17.5356,10.797,149.6355,0.067418,-0.09072,-0.0013768,0.070071,0.058601,-10.79,0.2832,-0.40231,-0.003808,0.0097851,0.0094905,0.39525,0.31637,0.26459,-48.717,0.26324,-0.37396,-0.0035396,0,4.515,0.68988,0.92952,0.92952,0.0063989,3.0039,2.2437,0.14427,142.6091,
2.1118,24.0557,14.6598,225.5619,0.14228,0.090782,0.98565,17.5362,10.7976,149.5076,0.070499,-0.095112,-0.0014169,0.038457,0.035328,-10.779,0.23574,-0.33747,-0.0029475,0.0082703,0.0079615,0.39525,0.17363,0.15951,-48.6673,0.21913,-0.31368,-0.0027398,0,4.515,0.68988,0.92952,0.92952,0.0063989,3.0039,2.2437,0.14421,142.6144,
2.1236,24.2638,14.788,227.3356,0.14115,0.08994,0.98589,17.5365,10.7979,149.3799,0.073009,-0.098723,-0.0014467,0.0059019,0.011407,-10.7679,0.18699,-0.27074,-0.0020719,0.0067007,0.0063802,0.39525,0.026647,0.051502,-48.617,0.17381,-0.25165,-0.0019259,0,4.515,0.68988,0.92952,0.92952,0.0063989,3.0039,2.2437,0.14415,142.6197,
2.1355,24.472,14.9161,229.1077,0.13997,0.089071,0.98614,17.5364,10.7979,149.2523,0.074934,-0.10153,-0.001466,-0.027347,-0.012982,-10.7567,0.13731,-0.20263,-0.0011877,0.0050882,0.0047586,0.39525,-0.12347,-0.058615,-48.5664,0.12763,-0.18835,-0.001104,0,4.515,0.68988,0.92952,0.92952,0.0063989,3.0039,2.2437,0.1441,142.625,
2.1474,24.6801,15.0443,230.8784,0.13877,0.088183,0.98639,17.5358,10.7976,149.1248,0.076266,-0.10353,-0.0014749,-0.061042,-0.037658,-10.7455,0.087065,-0.13365,-0.00030129,0.0034449,0.003109,0.39525,-0.2756,-0.17002,-48.5159,0.080928,-0.12423,-0.00028006,0,4.515,0.68988,0.92952,0.92952,0.0063989,3.0039,2.2437,0.14404,142.6303,
2.1602,24.9053,15.183,232.7928,0.13746,0.087209,0.98666,17.5348,10.7969,148.987,0.077034,-0.10476,-0.0014726,-0.097723,-0.064474,-10.7335,0.032489,-0.058596,0.00065302,0.0016479,0.0013097,0.39525,-0.44122,-0.2911,-48.4617,0.030199,-0.054466,0.00060699,0,4.515,0.68988,0.92952,0.92952,0.0063989,3.0039,2.2437,0.14398,142.6361,
2.1731,25.1305,15.3216,234.7055,0.13613,0.086228,0.98693,17.5333,10.7959,148.8493,0.077102,-0.10504,-0.0014581,-0.13437,-0.091218,-10.7221,-0.021847,0.016241,0.0015944,0.0002319,0.00053454,0.39525,-0.60669,-0.41185,-48.4102,-0.020307,0.015096,0.001482,0,4.515,0.68988,0.92952,0.92952,0.0063989,3.0039,2.2437,0.14392,142.6418,
2.1859,25.3557,15.4603,236.6165,0.1348,0.085252,0.9872,17.5314,10.7946,148.7117,0.076476,-0.10435,-0.0014317,-0.17105,-0.1179,-10.714,-0.075487,0.090238,0.0025149,0.0019747,0.0023133,0.39525,-0.77231,-0.53231,-48.3738,-0.070167,0.083878,0.0023377,0,4.515,0.68988,0.92952,0.92952,0.0063989,3.0039,2.2437,0.14386,142.6475,
2.1988,25.5809,15.5989,238.5256,0.13349,0.084287,0.98746,17.5289,10.7929,148.5743,0.075167,-0.10272,-0.0013937,-0.20703,-0.14402,-10.7063,-0.12799,0.16279,0.0034073,0.0037489,0.0040829,0.39525,-0.93475,-0.65025,-48.3389,-0.11897,0.15131,0.0031671,0,4.515,0.68988,0.92952,0.92952,0.0063989,3.0039,2.2437,0.1438,142.6532,
2.2139,25.8469,15.7627,240.7798,0.13197,0.083174,0.98776,17.5255,10.7905,148.412,0.072766,-0.099618,-0.0013342,-0.24824,-0.17388,-10.6976,-0.18801,0.24587,0.004416,0.0057986,0.0061228,0.39525,-1.1208,-0.78507,-48.2995,-0.17476,0.22854,0.0041047,0,4.515,0.68988,0.92952,0.92952,0.0063989,3.0039,2.2437,0.14373,142.6599,
2.2291,26.113,15.9265,243.0315,0.13051,0.082104,0.98804,17.5214,10.7876,148.2498,0.069474,-0.095278,-0.0012599,-0.28757,-0.20232,-10.6893,-0.24518,0.32518,0.0053641,0.007773,0.0080832,0.39525,-1.2984,-0.91348,-48.2621,-0.2279,0.30226,0.004986,0,4.515,0.68988,0.92952,0.92952,0.0063989,3.0039,2.2437,0.14366,142.6667,
2.2443,26.3789,16.0903,245.2808,0.12912,0.081089,0.98831,17.5168,10.7843,148.0877,0.065339,-0.089769,-0.0011717,-0.3246,-0.22903,-10.6815,-0.29889,0.39986,0.0062415,0.0096491,0.0099415,0.39525,-1.4656,-1.0341,-48.227,-0.27782,0.37168,0.0058015,0,4.515,0.68988,0.92952,0.92952,0.0063989,3.0039,2.2437,0.14359,142.6734,
2.2595,26.6448,16.2539,247.5276,0.12782,0.080143,0.98855,17.5116,10.7807,147.9258,0.060419,-0.083165,-0.0010708,-0.35893,-0.25372,-10.6743,-0.34856,0.46911,0.0070389,0.011406,0.011677,0.39525,-1.6206,-1.1456,-48.1943,-0.32399,0.43604,0.0065428,0,4.515,0.68988,0.92952,0.92952,0.0063989,3.0039,2.2437,0.14352,142.6801,
2.273,26.8823,16.4001,249.5331,0.12675,0.079364,0.98875,17.5065,10.7771,147.7811,0.055412,-0.076412,-0.00097094,-0.38702,-0.27387,-10.6682,-0.38911,0.52581,0.0076772,0.01286,0.013109,0.39525,-1.7474,-1.2365,-48.1671,-0.36168,0.48875,0.0071361,0,4.515,0.68988,0.92952,0.92952,0.0063989,3.0039,2.2437,0.14346,142.6861,
2.2866,27.1197,16.5463,251.5366,0.12578,0.078655,0.98894,17.5011,10.7732,147.6366,0.049881,-0.068925,-0.00086289,-0.41243,-0.29203,-10.6626,-0.4257,0.57715,0.0082401,0.014191,0.014415,0.39525,-1.8621,-1.3185,-48.1418,-0.3957,0.53647,0.0076593,0,4.515,0.68988,0.92952,0.92952,0.0063989,3.0039,2.2437,0.1434,142.6921,
2.3002,27.357,16.6924,253.5382,0.12491,0.078025,0.9891,17.4953,10.7692,147.4921,0.043883,-0.060781,-0.00074776,-0.43496,-0.30807,-10.6575,-0.45806,0.62272,0.0087232,0.015387,0.015585,0.39525,-1.9638,-1.3909,-48.1184,-0.42577,0.57883,0.0081084,0,4.515,0.68988,0.92952,0.92952,0.0063989,3.0039,2.2437,0.14333,142.6981,
2.3137,27.5943,16.8384,255.5378,0.12415,0.077477,0.98923,17.4893,10.7649,147.3477,0.037476,-0.05206,-0.00062664,-0.45443,-0.32186,-10.6527,-0.48593,0.66219,0.0091232,0.016439,0.016609,0.39525,-2.0518,-1.4532,-48.0969,-0.45168,0.61552,0.0084801,0,4.515,0.68988,0.92952,0.92952,0.0063989,3.0039,2.2437,0.14327,142.7041,
2.3273,27.8315,16.9844,257.5354,0.12352,0.077018,0.98935,17.483,10.7604,147.2034,0.030722,-0.042846,-0.00050066,-0.47071,-0.33331,-10.6484,-0.50913,0.69528,0.0094373,0.017338,0.017478,0.39525,-2.1253,-1.5049,-48.0773,-0.47325,0.64628,0.0087721,0,4.515,0.68988,0.92952,0.92952,0.0063989,3.0039,2.2437,0.14321,142.71,
2.3409,28.0686,17.1303,259.5311,0.12301,0.076652,0.98944,17.4765,10.7559,147.0591,0.023686,-0.033228,-0.00037101,-0.48369,-0.34234,-10.6444,-0.52751,0.72177,0.0096636,0.018078,0.018186,0.39525,-2.1839,-1.5457,-48.0595,-0.49033,0.6709,0.0089825,0,4.515,0.68988,0.92952,0.92952,0.0063989,3.0039,2.2437,0.14315,142.716,
2.3544,28.3056,17.2762,261.5249,0.12263,0.076382,0.98951,17.4699,10.7512,146.9149,0.016434,-0.023296,-0.00023891,-0.49329,-0.34889,-10.6409,-0.54096,0.7415,0.009801,0.018651,0.018727,0.39525,-2.2272,-1.5752,-48.0435,-0.50283,0.68924,0.0091102,0,4.515,0.68988,0.92952,0.92952,0.0063989,3.0039,2.2437,0.14309,142.722,
2.368,28.5425,17.422,263.5167,0.12238,0.076211,0.98955,17.4632,10.7464,146.7707,0.0090332,-0.013143,-0.00010555,-0.49945,-0.35294,-10.6377,-0.54942,0.75439,0.0098494,0.019056,0.019098,0.39525,-2.255,-1.5935,-48.0292,-0.51069,0.70122,0.0091552,0,4.515,0.68988,0.92952,0.92952,0.0063989,3.0039,2.2437,0.14302,142.7279,
2.3803,28.7572,17.5541,265.3202,0.12228,0.076142,0.98957,17.457,10.7421,146.64,0.0022537,-0.0038276,1.5419e-05,-0.50207,-0.35445,-10.6352,-0.55277,0.76014,0.0098167,0.019274,0.019286,0.39525,-2.2668,-1.6003,-48.0178,-0.51381,0.70656,0.0091248,0,4.515,0.68988,0.92952,0.92952,0.0063989,3.0039,2.2437,0.14297,142.7333,
2.3926,28.9717,17.6861,267.1222,0.12229,0.076156,0.98957,17.4508,10.7377,146.5094,-0.0045417,0.005524,0.00013554,-0.50187,-0.35391,-10.6329,-0.55205,0.76026,0.0097123,0.01935,0.019331,0.39525,-2.2659,-1.5979,-48.0077,-0.51314,0.70667,0.0090278,0,4.515,0.68988,0.92952,0.92952,0.0063989,3.0039,2.2437,0.14291,142.7387,
2.4049,29.1862,17.8181,268.9226,0.12241,0.076253,0.98955,17.4447,10.7334,146.3788,-0.011303,0.014843,0.00025393,-0.49888,-0.35134,-10.631,-0.54729,0.75482,0.0095376,0.019285,0.019235,0.39525,-2.2525,-1.5863,-47.999,-0.50872,0.70162,0.0088654,0,4.515,0.68988,0.92952,0.92952,0.0063989,3.0039,2.2437,0.14286,142.7441,
2.4172,29.4007,17.95,270.7213,0.12265,0.076432,0.9895,17.4386,10.7291,146.2483,-0.017982,0.024061,0.00036975,-0.49317,-0.3468,-10.6294,-0.53859,0.74394,0.0092946,0.019079,0.018999,0.39525,-2.2267,-1.5658,-47.9917,-0.50062,0.6915,0.0086395,0,4.515,0.68988,0.92952,0.92952,0.0063989,3.0039,2.2437,0.1428,142.7495,
2.4291,29.6086,18.078,272.4648,0.12299,0.076682,0.98944,17.4327,10.725,146.1216,-0.024337,0.032845,0.00047889,-0.48508,-0.34055,-10.6281,-0.52647,0.7283,0.008996,0.018748,0.018639,0.39525,-2.1902,-1.5376,-47.9858,-0.48937,0.67697,0.0083619,0,4.515,0.68988,0.92952,0.92952,0.0063989,3.0039,2.2437,0.14275,142.7547,
2.441,29.8165,18.2059,274.2068,0.12342,0.077007,0.98936,17.427,10.721,145.995,-0.030526,0.041414,0.00058411,-0.47458,-0.33256,-10.6271,-0.51087,0.70783,0.008638,0.01829,0.018153,0.39525,-2.1427,-1.5015,-47.9812,-0.47486,0.65794,0.0080292,0,4.515,0.68988,0.92952,0.92952,0.0063989,3.0039,2.2437,0.14269,142.7599,
2.4529,30.0243,18.3337,275.9473,0.12396,0.077404,0.98926,17.4214,10.717,145.8683,-0.03651,0.049711,0.00068471,-0.46175,-0.32288,-10.6263,-0.49193,0.68271,0.0082238,0.017709,0.017545,0.39525,-2.0848,-1.4578,-47.9779,-0.45726,0.63459,0.0076441,0,4.515,0.68988,0.92952,0.92952,0.0063989,3.0039,2.2437,0.14264,142.7651,
2.4649,30.2321,18.4615,277.6863,0.12459,0.07787,0.98915,17.416,10.7133,145.7417,-0.042248,0.057681,0.00078006,-0.44672,-0.31162,-10.6259,-0.46981,0.65318,0.0077566,0.017011,0.016819,0.39525,-2.0169,-1.407,-47.9757,-0.4367,0.60714,0.0072099,0,4.515,0.68988,0.92952,0.92952,0.0063989,3.0039,2.2437,0.14258,142.7703,
2.4768,30.4401,18.5895,279.4272,0.12532,0.078403,0.98901,17.4108,10.7096,145.6148,-0.047715,0.06529,0.00086971,-0.42957,-0.29884,-10.6257,-0.44465,0.61941,0.0072391,0.016197,0.015981,0.39525,-1.9395,-1.3492,-47.9748,-0.41331,0.57576,0.0067289,0,4.515,0.68988,0.92952,0.92952,0.0063989,3.0039,2.2437,0.14253,142.7755,
2.4888,30.6482,18.7175,281.1666,0.12613,0.078999,0.98886,17.4058,10.7061,145.488,-0.052864,0.072471,0.00095291,-0.41047,-0.28465,-10.6257,-0.41669,0.58174,0.0066762,0.015277,0.015037,0.39525,-1.8533,-1.2852,-47.9751,-0.38732,0.54074,0.0062056,0,4.515,0.68988,0.92952,0.92952,0.0063989,3.0039,2.2437,0.14248,142.7807,
2.5007,30.8562,18.8454,282.9045,0.12703,0.079654,0.9887,17.401,10.7028,145.3611,-0.057664,0.079179,0.0010291,-0.38958,-0.26918,-10.6261,-0.38616,0.54046,0.0060721,0.014258,0.013995,0.39525,-1.7589,-1.2154,-47.9766,-0.35894,0.50237,0.0056441,0,4.515,0.68988,0.92952,0.92952,0.0063989,3.0039,2.2437,0.14242,142.7859,
2.5127,31.0641,18.9733,284.6408,0.128,0.080363,0.98851,17.3964,10.6997,145.2342,-0.062084,0.085375,0.0010979,-0.36704,-0.25254,-10.6266,-0.35328,0.4959,0.0054313,0.013145,0.012862,0.39525,-1.6572,-1.1402,-47.9793,-0.32838,0.46094,0.0050485,0,4.515,0.68988,0.92952,0.92952,0.0063989,3.0039,2.2437,0.14237,142.7911,
2.5249,31.2772,19.1044,286.4196,0.12907,0.081142,0.98831,17.3921,10.6967,145.1041,-0.066196,0.091155,0.0011602,-0.34242,-0.2344,-10.6275,-0.31741,0.44714,0.004741,0.011917,0.011614,0.39525,-1.546,-1.0583,-47.9832,-0.29503,0.41562,0.0044069,0,4.515,0.68988,0.92952,0.92952,0.0063989,3.0039,2.2437,0.14231,142.7964,
2.5372,31.4903,19.2354,288.1968,0.1302,0.081968,0.98809,17.3881,10.6939,144.974,-0.069855,0.096322,0.001214,-0.31645,-0.21531,-10.6286,-0.27961,0.39567,0.0040223,0.010609,0.010289,0.39525,-1.4288,-0.97211,-47.9883,-0.2599,0.36778,0.0037388,0,4.515,0.68988,0.92952,0.92952,0.0063989,3.0039,2.2437,0.14226,142.8017,
2.5494,31.7033,19.3664,289.9724,0.1314,0.082836,0.98786,17.3843,10.6914,144.8439,-0.073041,0.10084,0.0012587,-0.28933,-0.1954,-10.63,-0.24019,0.34187,0.0032806,0.0092321,0.008897,0.39525,-1.3063,-0.88225,-47.9945,-0.22326,0.31777,0.0030493,0,4.515,0.68988,0.92952,0.92952,0.0063989,3.0039,2.2437,0.1422,142.807,
2.5617,31.9163,19.4974,291.7464,0.13264,0.083738,0.98762,17.381,10.6892,144.7137,-0.075736,0.10469,0.0012943,-0.26126,-0.17484,-10.6316,-0.19943,0.28615,0.0025211,0.0077952,0.0074472,0.39525,-1.1796,-0.78941,-48.0018,-0.18537,0.26598,0.0023434,0,4.515,0.68988,0.92952,0.92952,0.0063989,3.0039,2.2437,0.14215,142.8123,
2.5746,32.1405,19.6353,293.6123,0.13399,0.084721,0.98735,17.3778,10.6871,144.5767,-0.078025,0.108,0.0013216,-0.23092,-0.15265,-10.6335,-0.15541,0.22588,0.0017086,0.0062297,0.0058705,0.39525,-1.0426,-0.6892,-48.0104,-0.14445,0.20996,0.0015882,0,4.515,0.68988,0.92952,0.92952,0.0063989,3.0039,2.2437,0.14209,142.8179,
2.5875,32.3647,19.7732,295.4765,0.13538,0.085728,0.98708,17.375,10.6852,144.4396,-0.079742,0.11051,0.0013383,-0.20001,-0.13007,-10.6357,-0.1106,0.16442,0.00088906,0.0046224,0.0042548,0.39525,-0.90304,-0.58727,-48.0201,-0.1028,0.15283,0.00082639,0,4.515,0.68988,0.92952,0.92952,0.0063989,3.0039,2.2437,0.14203,142.8235,
2.6004,32.5888,19.911,297.3389,0.1368,0.086754,0.98679,17.3726,10.6837,144.3025,-0.080877,0.11223,0.0013445,-0.16877,-0.10729,-10.638,-0.065355,0.10227,6.8939e-05,0.0029867,0.0026134,0.39525,-0.762,-0.48441,-48.0305,-0.060749,0.095066,6.408e-05,0,4.515,0.68988,0.92952,0.92952,0.0063989,3.0039,2.2437,0.14198,142.829,
2.6133,32.8129,20.0488,299.1995,0.13824,0.087789,0.9865,17.3707,10.6825,144.1654,-0.081427,0.11315,0.0013401,-0.13745,-0.084483,-10.6405,-0.020037,0.039928,-0.00074545,0.0013382,0.00096477,0.39525,-0.62059,-0.38144,-48.0417,-0.018625,0.037113,-0.00069291,0,4.515,0.68988,0.92952,0.92952,0.0063989,3.0039,2.2437,0.14192,142.8346,
2.6275,33.0594,20.2004,301.2447,0.13982,0.088933,0.98618,17.369,10.6814,144.0145,-0.08136,0.11323,0.0013233,-0.10331,-0.059646,-10.6442,0.029502,-0.028336,-0.0016276,0.00052039,0.00088674,0.39525,-0.46643,-0.2693,-48.0586,0.027423,-0.026339,-0.0015129,0,4.515,0.68988,0.92952,0.92952,0.0063989,3.0039,2.2437,0.14185,142.8407,
2.6417,33.306,20.352,303.2879,0.1414,0.090069,0.98585,17.3677,10.6808,143.8635,-0.080594,0.11235,0.001294,-0.070005,-0.03543,-10.6503,0.078256,-0.095629,-0.0024872,0.0023116,0.0026853,0.39525,-0.31607,-0.15997,-48.0863,0.07274,-0.088888,-0.0023119,0,4.515,0.68988,0.92952,0.92952,0.0063989,3.0039,2.2437,0.14179,142.8468,
2.6559,33.5525,20.5036,305.3288,0.14296,0.09119,0.98552,17.367,10.6804,143.7124,-0.079144,0.11053,0.0012528,-0.037515,-0.011846,-10.6565,0.12578,-0.16134,-0.0033166,0.0040909,0.0044593,0.39525,-0.16938,-0.053484,-48.114,0.11691,-0.14997,-0.0030829,0,4.515,0.68988,0.92952,0.92952,0.0063989,3.0039,2.2437,0.14173,142.8529,
2.6701,33.799,20.6552,307.3677,0.14448,0.092285,0.98519,17.3667,10.6804,143.5612,-0.077031,0.10778,0.0012,-0.0061207,0.010902,-10.6625,0.17166,-0.22489,-0.0041086,0.0058264,0.0061859,0.39525,-0.027635,0.049223,-48.141,0.15956,-0.20903,-0.003819,0,4.515,0.68988,0.92952,0.92952,0.0063989,3.0039,2.2437,0.14167,142.859,
2.6881,34.1115,20.8474,309.9495,0.14635,0.093624,0.98479,17.3669,10.6809,143.3694,-0.07344,0.10304,0.0011176,0.031689,0.038238,-10.6697,0.22683,-0.30148,-0.0050482,0.0079379,0.0082817,0.39525,0.14307,0.17265,-48.1739,0.21084,-0.28023,-0.0046924,0,4.515,0.68988,0.92952,0.92952,0.0063989,3.0039,2.2437,0.14159,142.8667,
2.7061,34.4241,21.0397,312.5278,0.14812,0.094889,0.98441,17.3678,10.6818,143.1775,-0.068891,0.096964,0.0010189,0.066792,0.063548,-10.6765,0.27795,-0.37264,-0.0059037,0.0099213,0.010245,0.39525,0.30157,0.28692,-48.2043,0.25836,-0.34638,-0.0054876,0,4.515,0.68988,0.92952,0.92952,0.0063989,3.0039,2.2437,0.14151,142.8745,
2.724,34.7366,21.2319,315.1027,0.14978,0.096065,0.98404,17.3693,10.6831,142.9855,-0.063464,0.089665,0.00090564,0.098728,0.086497,-10.6825,0.32434,-0.43742,-0.0066638,0.011748,0.012048,0.39525,0.44576,0.39054,-48.2316,0.30148,-0.40659,-0.0061941,0,4.515,0.68988,0.92952,0.92952,0.0063989,3.0039,2.2437,0.14143,142.8822,
2.742,35.0492,21.4242,317.6742,0.15129,0.097137,0.98371,17.3713,10.6849,142.7934,-0.057249,0.081264,0.00077961,0.1271,0.1068,-10.6877,0.36539,-0.49498,-0.0073189,0.013394,0.013666,0.39525,0.57386,0.48222,-48.2551,0.33964,-0.46009,-0.006803,0,4.515,0.68988,0.92952,0.92952,0.0063989,3.0039,2.2437,0.14135,142.8898,
2.7558,35.2876,21.5708,319.6325,0.15234,0.097876,0.98347,17.3732,10.6864,142.6468,-0.052043,0.074201,0.0006762,0.14613,0.12036,-10.691,0.39281,-0.53358,-0.0077429,0.014514,0.014761,0.39525,0.65977,0.54343,-48.2699,0.36512,-0.49597,-0.0071971,0,4.515,0.68988,0.92952,0.92952,0.0063989,3.0039,2.2437,0.14129,142.8957,
2.7695,35.526,21.7174,321.5889,0.15329,0.098543,0.98326,17.3753,10.6882,142.5003,-0.046486,0.066643,0.00056744,0.16276,0.13215,-10.6936,0.41663,-0.56729,-0.0080982,0.015506,0.015728,0.39525,0.73485,0.59665,-48.2818,0.38727,-0.52731,-0.0075274,0,4.515,0.68988,0.92952,0.92952,0.0063989,3.0039,2.2437,0.14123,142.9016,
2.7832,35.7645,21.8641,323.5432,0.15413,0.099132,0.98306,17.3776,10.6901,142.3536,-0.040627,0.058656,0.00045428,0.17688,0.14209,-10.6956,0.43672,-0.5959,-0.0083826,0.016363,0.016559,0.39525,0.79863,0.64155,-48.2905,0.40594,-0.5539,-0.0077918,0,4.515,0.68988,0.92952,0.92952,0.0063989,3.0039,2.2437,0.14117,142.9074,
2.7969,36.0029,22.0108,325.4956,0.15487,0.09964,0.9829,17.3802,10.6921,142.207,-0.034518,0.050313,0.00033771,0.18843,0.15014,-10.6968,0.45295,-0.61923,-0.0085946,0.01708,0.017247,0.39525,0.85075,0.67787,-48.296,0.42103,-0.57559,-0.0079889,0,4.515,0.68988,0.92952,0.92952,0.0063989,3.0039,2.2437,0.14111,142.9132,
2.8107,36.2414,22.1575,327.4459,0.15549,0.10006,0.98276,17.3828,10.6942,142.0603,-0.028214,0.041687,0.00021874,0.19733,0.15625,-10.6972,0.46524,-0.63716,-0.0087332,0.017651,0.017789,0.39525,0.89095,0.70545,-48.2979,0.43245,-0.59225,-0.0081177,0,4.515,0.68988,0.92952,0.92952,0.0063989,3.0039,2.2437,0.14105,142.9191,
2.8244,36.48,22.3043,329.3942,0.15599,0.1004,0.98264,17.3856,10.6963,141.9137,-0.021769,0.032852,9.8385e-05,0.20355,0.16039,-10.6968,0.47353,-0.6496,-0.008798,0.018072,0.01818,0.39525,0.91904,0.72417,-48.2962,0.44015,-0.60382,-0.0081779,0,4.515,0.68988,0.92952,0.92952,0.0063989,3.0039,2.2437,0.14099,142.9249,
2.8381,36.7185,22.4511,331.3405,0.15637,0.10065,0.98256,17.3884,10.6986,141.767,-0.015237,0.023885,-2.2364e-05,0.20708,0.16257,-10.6956,0.4778,-0.65652,-0.0087893,0.018341,0.018419,0.39525,0.93498,0.73399,-48.2908,0.44412,-0.61025,-0.0081698,0,4.515,0.68988,0.92952,0.92952,0.0063989,3.0039,2.2437,0.14093,142.9307,
2.8518,36.9572,22.5979,333.2848,0.15663,0.10081,0.9825,17.3912,10.7008,141.6204,-0.0086747,0.014861,-0.0001425,0.20793,0.16278,-10.6936,0.47807,-0.65793,-0.0087079,0.018456,0.018504,0.39525,0.93879,0.73495,-48.2818,0.44438,-0.61156,-0.0080941,0,4.515,0.68988,0.92952,0.92952,0.0063989,3.0039,2.2437,0.14087,142.9365,
2.8648,37.1823,22.7364,335.1169,0.15677,0.10088,0.98247,17.3939,10.7029,141.4821,-0.0025047,0.006363,-0.00025436,0.20629,0.16121,-10.691,0.47471,-0.65427,-0.0085658,0.018425,0.018443,0.39525,0.9314,0.72786,-48.2699,0.44125,-0.60815,-0.0079621,0,4.515,0.68988,0.92952,0.92952,0.0063989,3.0039,2.2437,0.14081,142.942,
2.8777,37.4074,22.875,336.9473,0.1568,0.10087,0.98247,17.3966,10.705,141.3439,0.0035992,-0.0020561,-0.00036397,0.20233,0.15795,-10.6877,0.46789,-0.64584,-0.0083621,0.018258,0.018248,0.39525,0.91353,0.71313,-48.2548,0.43491,-0.60032,-0.0077727,0,4.515,0.68988,0.92952,0.92952,0.0063989,3.0039,2.2437,0.14076,142.9475,
2.8906,37.6326,23.0135,338.7759,0.15672,0.10079,0.98249,17.3991,10.707,141.2057,0.009593,-0.010336,-0.00047057,0.19611,0.15304,-10.6836,0.45772,-0.63276,-0.0080989,0.017958,0.01792,0.39525,0.88544,0.69098,-48.2365,0.42546,-0.58816,-0.007528,0,4.515,0.68988,0.92952,0.92952,0.0063989,3.0039,2.2437,0.1407,142.9529,
2.9036,37.8578,23.1521,340.6027,0.15654,0.10063,0.98253,17.4016,10.7089,141.0676,0.015434,-0.018417,-0.00057339,0.1877,0.14655,-10.6789,0.4443,-0.61519,-0.0077786,0.017528,0.017462,0.39525,0.84746,0.66165,-48.2152,0.41298,-0.57183,-0.0072304,0,4.515,0.68988,0.92952,0.92952,0.0063989,3.0039,2.2437,0.14065,142.9584,
2.9164,38.0799,23.2888,342.4017,0.15626,0.1004,0.9826,17.404,10.7107,140.9315,0.021002,-0.026133,-0.00067034,0.17735,0.13865,-10.6736,0.42803,-0.59365,-0.00741,0.01698,0.016888,0.39525,0.80074,0.62601,-48.1915,0.39786,-0.55181,-0.0068877,0,4.515,0.68988,0.92952,0.92952,0.0063989,3.0039,2.2437,0.14059,142.9638,
2.9291,38.302,23.4255,344.1989,0.15588,0.1001,0.98269,17.4061,10.7125,140.7955,0.026344,-0.033549,-0.00076226,0.16505,0.12935,-10.6678,0.40889,-0.56812,-0.0069919,0.016314,0.016196,0.39525,0.74522,0.58403,-48.1651,0.38007,-0.52808,-0.0064991,0,4.515,0.68988,0.92952,0.92952,0.0063989,3.0039,2.2437,0.14054,142.9692,
2.9419,38.5241,23.5621,345.9945,0.15542,0.099737,0.9828,17.4082,10.714,140.6595,0.031425,-0.040614,-0.00084856,0.15092,0.11873,-10.6614,0.38705,-0.53882,-0.0065278,0.015536,0.015394,0.39525,0.68141,0.53606,-48.1364,0.35977,-0.50084,-0.0060677,0,4.515,0.68988,0.92952,0.92952,0.0063989,3.0039,2.2437,0.14048,142.9745,
2.9546,38.7462,23.6989,347.7883,0.15487,0.099311,0.98293,17.41,10.7155,140.5237,0.03621,-0.047283,-0.00092866,0.13507,0.10687,-10.6546,0.3627,-0.50601,-0.0060214,0.014651,0.014486,0.39525,0.60985,0.48251,-48.1054,0.33713,-0.47034,-0.005597,0,4.515,0.68988,0.92952,0.92952,0.0063989,3.0039,2.2437,0.14043,142.9799,
2.9675,38.9711,23.8373,349.603,0.15423,0.09882,0.98308,17.4116,10.7168,140.3862,0.040724,-0.053588,-0.0010029,0.11741,0.093698,-10.6472,0.33567,-0.46948,-0.0054696,0.013653,0.013466,0.39525,0.53009,0.42304,-48.072,0.31201,-0.43639,-0.0050841,0,4.515,0.68988,0.92952,0.92952,0.0063989,3.0039,2.2437,0.14037,142.9853,
2.9805,39.1961,23.9758,351.416,0.15351,0.098274,0.98325,17.413,10.7179,140.2488,0.044875,-0.059402,-0.0010699,0.098256,0.079467,-10.6394,0.30649,-0.42992,-0.0048827,0.012561,0.012354,0.39525,0.44363,0.3588,-48.0368,0.28489,-0.39961,-0.0045386,0,4.515,0.68988,0.92952,0.92952,0.0063989,3.0039,2.2437,0.14032,142.9907,
2.9934,39.4211,24.1143,353.2272,0.15273,0.097677,0.98343,17.4142,10.7188,140.1115,0.048636,-0.064686,-0.001129,0.077778,0.064291,-10.6312,0.27539,-0.38765,-0.0042654,0.011383,0.011158,0.39525,0.35117,0.29027,-48.0001,0.25598,-0.36033,-0.0039648,0,4.515,0.68988,0.92952,0.92952,0.0063989,3.0039,2.2437,0.14026,142.9961,
3.0063,39.6461,24.2528,355.0366,0.15187,0.097035,0.98363,17.415,10.7196,139.9743,0.051984,-0.069409,-0.00118,0.05613,0.048286,-10.6228,0.24261,-0.343,-0.0036224,0.010127,0.0098861,0.39525,0.25343,0.21801,-47.9621,0.22551,-0.31883,-0.0033671,0,4.515,0.68988,0.92952,0.92952,0.0063989,3.0039,2.2437,0.14021,143.0016,
3.0197,39.8796,24.3965,356.9123,0.15093,0.096326,0.98384,17.4156,10.7201,139.8321,0.055,-0.073685,-0.0012239,0.03261,0.030934,-10.6139,0.20709,-0.29453,-0.0029331,0.0087531,0.0084971,0.39525,0.14723,0.13967,-47.9217,0.1925,-0.27377,-0.0027263,0,4.515,0.68988,0.92952,0.92952,0.0063989,3.0039,2.2437,0.14015,143.0072,
3.0331,40.1131,24.5402,358.786,0.14994,0.095581,0.98406,17.4159,10.7204,139.69,0.057532,-0.077299,-0.0012585,0.0082022,0.012964,-10.6048,0.17033,-0.24427,-0.0022266,0.0073169,0.0070483,0.39525,0.037033,0.058532,-47.8804,0.15833,-0.22705,-0.0020697,0,4.515,0.68988,0.92952,0.92952,0.0063989,3.0039,2.2437,0.14009,143.0128,
3.0465,40.3466,24.6839,360.6579,0.1489,0.094805,0.9843,17.4158,10.7204,139.548,0.059563,-0.080228,-0.0012836,-0.016896,-0.0054804,-10.5955,0.13262,-0.19262,-0.0015087,0.00583,0.0055513,0.39525,-0.076287,-0.024744,-47.8388,0.12327,-0.17905,-0.0014024,0,4.515,0.68988,0.92952,0.92952,0.0063989,3.0039,2.2437,0.14004,143.0184,
3.0599,40.5801,24.8277,362.5279,0.14783,0.094006,0.98454,17.4154,10.7202,139.4061,0.061085,-0.082459,-0.001299,-0.042488,-0.024254,-10.5862,0.094251,-0.13999,-0.00078476,0.0043041,0.0040177,0.39525,-0.19183,-0.10951,-47.7969,0.087608,-0.13012,-0.00072945,0,4.515,0.68988,0.92952,0.92952,0.0063989,3.0039,2.2437,0.13998,143.024,
3.0743,40.8305,24.9819,364.5317,0.14665,0.09313,0.9848,17.4146,10.7197,139.2541,0.062142,-0.084062,-0.0013047,-0.070262,-0.044593,-10.5763,0.052704,-0.082908,-7.779e-06,0.0026378,0.0023461,0.39525,-0.31723,-0.20134,-47.7521,0.04899,-0.077065,-7.2307e-06,0,4.515,0.68988,0.92952,0.92952,0.0063989,3.0039,2.2437,0.13992,143.0299,
3.0887,41.081,25.136,366.5334,0.14545,0.092243,0.98506,17.4134,10.7189,139.1022,0.062601,-0.084843,-0.0012992,-0.098127,-0.064963,-10.5665,0.011112,-0.02567,0.00076301,0.00096011,0.00067035,0.39525,-0.44304,-0.29331,-47.7077,0.010329,-0.023861,0.00070923,0,4.515,0.68988,0.92952,0.92952,0.0063989,3.0039,2.2437,0.13986,143.0359,
3.1031,41.3314,25.2902,368.5328,0.14425,0.091354,0.98532,17.4118,10.7179,138.9504,0.062463,-0.084802,-0.0012828,-0.12601,-0.085297,-10.558,-0.030165,0.031225,0.001521,0.00075253,0.001044,0.39525,-0.56895,-0.38512,-47.6694,-0.028038,0.029024,0.0014138,0,4.515,0.68988,0.92952,0.92952,0.0063989,3.0039,2.2437,0.1398,143.0419,
3.1175,41.5818,25.4443,370.5301,0.14306,0.09047,0.98557,17.4098,10.7165,138.7987,0.061736,-0.083949,-0.0012556,-0.15372,-0.10545,-10.5512,-0.070777,0.087296,0.0022599,0.0024177,0.0027097,0.39525,-0.69406,-0.47609,-47.6388,-0.065788,0.081143,0.0021006,0,4.515,0.68988,0.92952,0.92952,0.0063989,3.0039,2.2437,0.13974,143.0479,
3.134,41.8702,25.6218,372.8279,0.1417,0.089471,0.98586,17.407,10.7146,138.6242,0.060184,-0.081978,-0.0012113,-0.18484,-0.12803,-10.5437,-0.11629,0.15025,0.0030794,0.0043118,0.0045973,0.39525,-0.83455,-0.57805,-47.6048,-0.1081,0.13966,0.0028624,0,4.515,0.68988,0.92952,0.92952,0.0063989,3.0039,2.2437,0.13967,143.0548,
3.1506,42.1585,25.7993,375.1229,0.14039,0.088503,0.98613,17.4037,10.7123,138.4497,0.057893,-0.078984,-0.0011538,-0.21477,-0.1497,-10.5365,-0.15998,0.2108,0.0038566,0.0061508,0.0064262,0.39525,-0.96967,-0.6759,-47.5723,-0.14871,0.19594,0.0035848,0,4.515,0.68988,0.92952,0.92952,0.0063989,3.0039,2.2437,0.1396,143.0616,
3.1672,42.4468,25.9767,377.4149,0.13913,0.087578,0.98639,17.3999,10.7096,138.2754,0.054897,-0.075012,-0.0010838,-0.24318,-0.17023,-10.5297,-0.20137,0.26829,0.0045832,0.0079137,0.0081755,0.39525,-1.0979,-0.7686,-47.5414,-0.18718,0.24938,0.0042601,0,4.515,0.68988,0.92952,0.92952,0.0063989,3.0039,2.2437,0.13953,143.0685,
3.1837,42.735,26.1541,379.704,0.13794,0.086708,0.98664,17.3956,10.7066,138.1012,0.051237,-0.070116,-0.0010023,-0.26977,-0.1894,-10.5232,-0.24004,0.32213,0.0052517,0.0095812,0.009826,0.39525,-1.218,-0.85516,-47.5123,-0.22312,0.29942,0.0048816,0,4.515,0.68988,0.92952,0.92952,0.0063989,3.0039,2.2437,0.13946,143.0753,
3.1998,43.0152,26.3265,381.9274,0.13687,0.085923,0.98686,17.3911,10.7034,137.9319,0.047086,-0.064531,-0.00091283,-0.29364,-0.20656,-10.5173,-0.27467,0.37047,0.0058399,0.011094,0.01132,0.39525,-1.3258,-0.93261,-47.4858,-0.25531,0.34435,0.0054282,0,4.515,0.68988,0.92952,0.92952,0.0063989,3.0039,2.2437,0.13939,143.082,
3.2159,43.2953,26.4989,384.148,0.1359,0.085209,0.98705,17.3862,10.7,137.7626,0.042405,-0.058203,-0.00081445,-0.3153,-0.22208,-10.5119,-0.30602,0.41438,0.0063613,0.012485,0.012688,0.39525,-1.4236,-1.0027,-47.461,-0.28445,0.38517,0.0059129,0,4.515,0.68988,0.92952,0.92952,0.0063989,3.0039,2.2437,0.13932,143.0886,
3.2321,43.5753,26.6713,386.3659,0.13503,0.084574,0.98723,17.3809,10.6963,137.5935,0.037246,-0.051207,-0.00070826,-0.33455,-0.23582,-10.5068,-0.33382,0.45347,0.0068113,0.013739,0.013919,0.39525,-1.5105,-1.0647,-47.4381,-0.31029,0.4215,0.0063312,0,4.515,0.68988,0.92952,0.92952,0.0063989,3.0039,2.2437,0.13926,143.0952,
3.2482,43.8553,26.8436,388.5811,0.13427,0.084024,0.98738,17.3754,10.6924,137.4244,0.03167,-0.043621,-0.00059543,-0.35123,-0.24766,-10.5021,-0.35783,0.48739,0.0071861,0.014846,0.014998,0.39525,-1.5858,-1.1182,-47.4169,-0.33261,0.45304,0.0066796,0,4.515,0.68988,0.92952,0.92952,0.0063989,3.0039,2.2437,0.13919,143.1019,
3.2643,44.1352,27.0158,390.7936,0.13365,0.083566,0.9875,17.3696,10.6883,137.2554,0.025738,-0.035532,-0.00047716,-0.36519,-0.25751,-10.4978,-0.37786,0.51588,0.0074829,0.015794,0.015918,0.39525,-1.6489,-1.1627,-47.3976,-0.35123,0.47952,0.0069554,0,4.515,0.68988,0.92952,0.92952,0.0063989,3.0039,2.2437,0.13912,143.1085,
3.2804,44.4149,27.1879,393.0033,0.13315,0.083204,0.9876,17.3637,10.6841,137.0865,0.019518,-0.02703,-0.00035475,-0.37633,-0.26529,-10.4939,-0.39375,0.53872,0.0076993,0.016574,0.016669,0.39525,-1.6991,-1.1978,-47.3801,-0.366,0.50075,0.0071566,0,4.515,0.68988,0.92952,0.92952,0.0063989,3.0039,2.2437,0.13906,143.1151,
3.2965,44.6946,27.36,395.2103,0.13279,0.082944,0.98767,17.3575,10.6798,136.9176,0.013075,-0.018207,-0.00022953,-0.38456,-0.27094,-10.4904,-0.4054,0.55574,0.0078342,0.01718,0.017244,0.39525,-1.7363,-1.2233,-47.3643,-0.37683,0.51657,0.007282,0,4.515,0.68988,0.92952,0.92952,0.0063989,3.0039,2.2437,0.13899,143.1217,
3.3126,44.9742,27.532,397.4146,0.13257,0.082788,0.98771,17.3513,10.6754,136.7488,0.0064793,-0.0091571,-0.00010281,-0.38984,-0.27444,-10.4873,-0.41276,0.56685,0.0078872,0.017608,0.01764,0.39525,-1.7601,-1.2391,-47.3503,-0.38366,0.5269,0.0073313,0,4.515,0.68988,0.92952,0.92952,0.0063989,3.0039,2.2437,0.13892,143.1283,
3.3268,45.2212,27.684,399.3606,0.1325,0.082738,0.98772,17.3457,10.6715,136.5997,0.0005775,-0.0010456,9.4276e-06,-0.39204,-0.27573,-10.4849,-0.41567,0.57174,0.0078663,0.017834,0.017838,0.39525,-1.7701,-1.2449,-47.3393,-0.38637,0.53145,0.0073118,0,4.515,0.68988,0.92952,0.92952,0.0063989,3.0039,2.2437,0.13886,143.1341,
3.3411,45.4681,27.8359,401.3045,0.13254,0.082772,0.98772,17.3401,10.6675,136.4505,-0.0053417,0.0071025,0.00012091,-0.39193,-0.27535,-10.4827,-0.41523,0.57202,0.0077826,0.017918,0.017892,0.39525,-1.7696,-1.2432,-47.3296,-0.38596,0.5317,0.007234,0,4.515,0.68988,0.92952,0.92952,0.0063989,3.0039,2.2437,0.1388,143.1399,
3.3553,45.715,27.9878,403.2463,0.1327,0.082889,0.98768,17.3346,10.6636,136.3014,-0.011231,0.015222,0.00023075,-0.38954,-0.2733,-10.4809,-0.41148,0.56774,0.0076374,0.017858,0.017804,0.39525,-1.7588,-1.234,-47.3212,-0.38248,0.52773,0.0070991,0,4.515,0.68988,0.92952,0.92952,0.0063989,3.0039,2.2437,0.13875,143.1457,
3.3696,45.9617,28.1396,405.1859,0.13297,0.083088,0.98763,17.3291,10.6598,136.1523,-0.017044,0.023248,0.0003381,-0.38492,-0.26965,-10.4793,-0.40451,0.559,0.0074327,0.017657,0.017575,0.39525,-1.7379,-1.2174,-47.3141,-0.376,0.5196,0.0069088,0,4.515,0.68988,0.92952,0.92952,0.0063989,3.0039,2.2437,0.13869,143.1515,
3.3833,46.1996,28.2859,407.0541,0.13333,0.083358,0.98756,17.3238,10.6561,136.0086,-0.022534,0.030841,0.00043848,-0.37842,-0.26463,-10.4781,-0.39482,0.54646,0.007181,0.017332,0.017223,0.39525,-1.7086,-1.1948,-47.3085,-0.36699,0.50795,0.0066749,0,4.515,0.68988,0.92952,0.92952,0.0063989,3.0039,2.2437,0.13863,143.1571,
3.397,46.4374,28.4322,408.9204,0.1338,0.0837,0.98747,17.3187,10.6525,135.8649,-0.027872,0.038235,0.00053505,-0.36997,-0.25821,-10.4771,-0.38233,0.53004,0.0068785,0.016881,0.016746,0.39525,-1.6704,-1.1658,-47.304,-0.35538,0.49268,0.0063937,0,4.515,0.68988,0.92952,0.92952,0.0063989,3.0039,2.2437,0.13858,143.1627,
3.4107,46.6751,28.5784,410.7846,0.13437,0.084114,0.98735,17.3137,10.649,135.7212,-0.03302,0.045378,0.00062713,-0.35967,-0.25046,-10.4763,-0.36716,0.50989,0.0065278,0.016309,0.016148,0.39525,-1.6239,-1.1308,-47.3007,-0.34128,0.47395,0.0060677,0,4.515,0.68988,0.92952,0.92952,0.0063989,3.0039,2.2437,0.13852,143.1682,
3.4245,46.9128,28.7246,412.6469,0.13503,0.084597,0.98722,17.3088,10.6456,135.5775,-0.037941,0.052219,0.00071407,-0.3476,-0.24143,-10.4758,-0.34945,0.48621,0.0061321,0.01562,0.015434,0.39525,-1.5694,-1.0901,-47.2984,-0.32482,0.45194,0.0056999,0,4.515,0.68988,0.92952,0.92952,0.0063989,3.0039,2.2437,0.13846,143.1738,
3.4382,47.1508,28.8709,414.5103,0.13578,0.085145,0.98707,17.3041,10.6424,135.4336,-0.042611,0.058723,0.00079544,-0.33387,-0.2312,-10.4756,-0.32933,0.45918,0.0056939,0.014818,0.01461,0.39525,-1.5074,-1.0439,-47.2973,-0.30612,0.42682,0.0052926,0,4.515,0.68988,0.92952,0.92952,0.0063989,3.0039,2.2437,0.13841,143.1794,
3.452,47.3887,29.0172,416.3716,0.13662,0.085755,0.9869,17.2996,10.6393,135.2897,-0.046989,0.064834,0.0008705,-0.3186,-0.21987,-10.4756,-0.30701,0.42907,0.0052176,0.013912,0.013681,0.39525,-1.4385,-0.99272,-47.2973,-0.28537,0.39883,0.0048499,0,4.515,0.68988,0.92952,0.92952,0.0063989,3.0039,2.2437,0.13835,143.185,
3.4657,47.6265,29.1635,418.231,0.13754,0.086422,0.98672,17.2954,10.6363,135.1458,-0.051045,0.07051,0.00093877,-0.30192,-0.20754,-10.4758,-0.28268,0.39613,0.004707,0.012908,0.012657,0.39525,-1.3632,-0.93704,-47.2984,-0.26276,0.36821,0.0043752,0,4.515,0.68988,0.92952,0.92952,0.0063989,3.0039,2.2437,0.1383,143.1905,
3.4795,47.8643,29.3098,420.0883,0.13853,0.087142,0.98652,17.2913,10.6336,135.0018,-0.054755,0.075716,0.0009998,-0.28398,-0.1943,-10.4763,-0.25653,0.36065,0.0041661,0.011815,0.011546,0.39525,-1.2822,-0.87728,-47.3004,-0.23845,0.33523,0.0038724,0,4.515,0.68988,0.92952,0.92952,0.0063989,3.0039,2.2437,0.13824,143.1961,
3.4936,48.1085,29.4599,421.9937,0.13962,0.087931,0.98629,17.2875,10.6309,134.854,-0.058178,0.080538,0.0010546,-0.26439,-0.17988,-10.477,-0.22802,0.32185,0.0035835,0.010608,0.010321,0.39525,-1.1937,-0.81217,-47.3036,-0.21195,0.29917,0.003331,0,4.515,0.68988,0.92952,0.92952,0.0063989,3.0039,2.2437,0.13818,143.2018,
